sub,sess,run,trial_num,cond,task,RT,acc,mult_cond
101,Pre,1,1,3,shape,1.6488,1,multi-second
101,Pre,1,1,3,sound,1.6098,1,multi-first
101,Pre,1,2,1,shape,0.86691,1,single
101,Pre,1,4,3,shape,1.7847,1,multi-second
101,Pre,1,4,3,sound,1.7437,1,multi-first
101,Pre,1,5,2,sound,2.204,1,single
101,Pre,1,6,2,sound,1.0519,1,single
101,Pre,1,7,1,shape,0.87371,1,single
101,Pre,1,8,1,shape,1.0258,1,single
101,Pre,1,9,1,shape,2.1109,1,single
101,Pre,1,10,3,shape,1.511,1,multi-first
101,Pre,1,10,3,sound,1.522,1,multi-second
101,Pre,1,11,2,sound,1.2859,1,single
101,Pre,1,12,1,shape,0.89995,1,single
101,Pre,1,13,1,shape,0.75441,1,single
101,Pre,1,14,2,sound,0.97866,1,single
101,Pre,1,17,2,sound,1.0591,1,single
101,Pre,1,18,2,sound,1.4267,1,single
101,Pre,2,2,3,shape,0.39175,1,multi-first
101,Pre,2,2,3,sound,0.41675,1,multi-second
101,Pre,2,3,1,shape,0.79106,1,single
101,Pre,2,4,1,shape,0.69201,1,single
101,Pre,2,5,2,sound,1.4292,1,single
101,Pre,2,8,1,shape,0.89369,1,single
101,Pre,2,9,3,shape,1.7636,1,multi-second
101,Pre,2,9,3,sound,1.7086,1,multi-first
101,Pre,2,10,1,shape,0.84068,1,single
101,Pre,2,11,3,shape,1.6284,1,multi-second
101,Pre,2,11,3,sound,1.5604,1,multi-first
101,Pre,2,12,1,shape,0.76757,1,single
101,Pre,2,13,3,shape,1.3465,1,multi-first
101,Pre,2,13,3,sound,1.4075,1,multi-second
101,Pre,2,14,2,sound,0.95767,1,single
101,Pre,2,15,3,shape,1.5566,1,multi-second
101,Pre,2,15,3,sound,1.5026,1,multi-first
101,Pre,2,16,2,sound,1.0265,1,single
101,Pre,2,17,2,sound,0.92545,1,single
101,Pre,2,18,2,sound,0.96652,1,single
101,Pre,3,1,3,shape,2.7361,1,multi-second
101,Pre,3,1,3,sound,2.7221,1,multi-first
101,Pre,3,2,3,shape,1.7964,1,multi-first
101,Pre,3,2,3,sound,1.8095,1,multi-second
101,Pre,3,3,2,sound,0.85664,1,single
101,Pre,3,4,2,sound,0.93949,1,single
101,Pre,3,5,2,sound,0.76947,1,single
101,Pre,3,7,1,shape,0.57666,1,single
101,Pre,3,8,3,shape,1.5696,1,multi-second
101,Pre,3,8,3,sound,1.5556,1,multi-first
101,Pre,3,9,2,sound,0.84947,1,single
101,Pre,3,10,2,sound,1.3676,1,single
101,Pre,3,11,3,shape,1.3222,1,multi-second
101,Pre,3,11,3,sound,1.2722,1,multi-first
101,Pre,3,12,3,shape,1.3582,1,multi-first
101,Pre,3,12,3,sound,1.3982,1,multi-second
101,Pre,3,13,3,shape,1.7398,1,multi-second
101,Pre,3,13,3,sound,1.7038,1,multi-first
101,Pre,3,14,1,shape,1.7674,1,single
101,Pre,3,15,1,shape,1.7193,1,single
101,Pre,3,16,2,sound,1.3735,1,single
101,Pre,3,17,1,shape,1.6658,1,single
101,Pre,3,18,1,shape,0.78417,1,single
101,Pre,4,2,2,sound,0.5096,1,single
101,Pre,4,3,3,shape,1.0048,1,multi-first
101,Pre,4,3,3,sound,1.0608,1,multi-second
101,Pre,4,4,1,shape,0.79929,1,single
101,Pre,4,5,3,shape,1.3323,1,multi-first
101,Pre,4,5,3,sound,1.3423,1,multi-second
101,Pre,4,6,3,shape,1.5314,1,multi-second
101,Pre,4,6,3,sound,1.5244,1,multi-first
101,Pre,4,7,3,shape,1.0867,1,multi-second
101,Pre,4,7,3,sound,0.97767,1,multi-first
101,Pre,4,8,3,shape,1.29,1,multi-second
101,Pre,4,8,3,sound,1.117,1,multi-first
101,Pre,4,9,2,sound,1.3172,1,single
101,Pre,4,11,2,sound,0.70246,1,single
101,Pre,4,12,2,sound,1.1615,1,single
101,Pre,4,14,2,sound,0.89262,1,single
101,Pre,4,15,1,shape,1.4057,1,single
101,Pre,4,16,1,shape,0.73161,1,single
101,Pre,4,17,1,shape,0.87637,1,single
101,Pre,4,18,1,shape,0.70835,1,single
101,Pre,5,1,1,shape,1.4967,1,single
101,Pre,5,2,3,shape,1.8849,1,multi-first
101,Pre,5,2,3,sound,1.9999,1,multi-second
101,Pre,5,3,2,sound,0.71282,1,single
101,Pre,5,4,1,shape,0.6671,1,single
101,Pre,5,5,3,shape,1.3431,1,multi-first
101,Pre,5,5,3,sound,1.345,1,multi-second
101,Pre,5,6,3,shape,1.421,1,multi-first
101,Pre,5,6,3,sound,1.428,1,multi-second
101,Pre,5,7,3,shape,2.434,1,multi-first
101,Pre,5,7,3,sound,2.446,1,multi-second
101,Pre,5,8,2,sound,0.77105,1,single
101,Pre,5,9,1,shape,1.415,1,single
101,Pre,5,10,1,shape,1.3629,1,single
101,Pre,5,11,1,shape,0.92214,1,single
101,Pre,5,12,2,sound,0.77405,1,single
101,Pre,5,13,2,sound,0.88844,1,single
101,Pre,5,14,2,sound,1.3235,1,single
101,Pre,5,15,1,shape,1.6317,1,single
101,Pre,5,16,3,shape,1.7139,1,multi-first
101,Pre,5,16,3,sound,1.8038,1,multi-second
101,Pre,5,17,2,sound,0.66255,1,single
101,Pre,6,1,2,sound,0.87943,1,single
101,Pre,6,2,1,shape,0.71167,1,single
101,Pre,6,3,2,sound,0.91882,1,single
101,Pre,6,4,1,shape,1.1732,1,single
101,Pre,6,5,1,shape,1.2894,1,single
101,Pre,6,6,3,shape,1.891,1,multi-first
101,Pre,6,6,3,sound,1.928,1,multi-second
101,Pre,6,7,2,sound,1.0493,1,single
101,Pre,6,8,1,shape,0.80351,1,single
101,Pre,6,9,3,shape,1.0987,1,multi-first
101,Pre,6,9,3,sound,1.1507,1,multi-second
101,Pre,6,10,2,sound,0.72584,1,single
101,Pre,6,11,3,shape,1.7936,1,multi-first
101,Pre,6,11,3,sound,1.8556,1,multi-second
101,Pre,6,12,2,sound,0.79096,1,single
101,Pre,6,13,1,shape,1.5539,1,single
101,Pre,6,14,1,shape,0.80154,1,single
101,Pre,6,15,2,sound,1.1117,1,single
101,Pre,6,17,3,shape,1.3391,1,multi-first
101,Pre,6,17,3,sound,1.3411,1,multi-second
101,Pre,6,18,3,shape,1.5391,1,multi-second
101,Pre,6,18,3,sound,1.4671,1,multi-first
107,Pre,1,2,3,shape,1.0972,1,multi-second
107,Pre,1,2,3,sound,1.0742,1,multi-first
107,Pre,1,3,1,shape,1.2342,1,single
107,Pre,1,4,3,shape,2.1192,1,multi-first
107,Pre,1,4,3,sound,2.1423,1,multi-second
107,Pre,1,5,3,shape,2.0369,1,multi-first
107,Pre,1,5,3,sound,2.0389,1,multi-second
107,Pre,1,6,1,shape,1.0313,1,single
107,Pre,1,7,2,sound,1.9735,1,single
107,Pre,1,8,2,sound,1.8173,1,single
107,Pre,1,11,3,shape,2.6964,1,multi-second
107,Pre,1,11,3,sound,2.6394,1,multi-first
107,Pre,1,12,2,sound,1.5386,1,single
107,Pre,1,14,2,sound,1.3717,1,single
107,Pre,1,15,2,sound,1.516,1,single
107,Pre,1,16,1,shape,1.0156,1,single
107,Pre,1,17,3,shape,2.8368,1,multi-second
107,Pre,1,17,3,sound,2.8258,1,multi-first
107,Pre,1,18,1,shape,0.9417,1,single
107,Pre,2,1,1,shape,0.79753,1,single
107,Pre,2,2,2,sound,1.4187,1,single
107,Pre,2,3,3,shape,2.7265,1,multi-second
107,Pre,2,3,3,sound,2.6445,1,multi-first
107,Pre,2,4,3,shape,2.7384,1,multi-first
107,Pre,2,4,3,sound,2.7594,1,multi-second
107,Pre,2,5,1,shape,0.92131,1,single
107,Pre,2,6,3,shape,2.5446,1,multi-first
107,Pre,2,6,3,sound,2.5696,1,multi-second
107,Pre,2,7,1,shape,0.81191,1,single
107,Pre,2,8,2,sound,1.295,1,single
107,Pre,2,9,1,shape,1.9213,1,single
107,Pre,2,10,3,shape,1.9846,1,multi-first
107,Pre,2,10,3,sound,2.0026,1,multi-second
107,Pre,2,11,1,shape,0.89436,1,single
107,Pre,2,12,2,sound,1.5753,1,single
107,Pre,2,14,2,sound,1.2833,1,single
107,Pre,2,15,3,shape,1.9534,1,multi-first
107,Pre,2,15,3,sound,1.9654,1,multi-second
107,Pre,2,16,3,shape,1.6564,1,multi-first
107,Pre,2,16,3,sound,1.6624,1,multi-second
107,Pre,2,17,2,sound,0.97903,1,single
107,Pre,2,18,2,sound,1.2703,1,single
107,Pre,3,1,1,shape,1.3301,1,single
107,Pre,3,2,1,shape,0.92118,1,single
107,Pre,3,3,2,sound,1.1693,1,single
107,Pre,3,4,1,shape,0.80422,1,single
107,Pre,3,5,3,shape,1.5063,1,multi-second
107,Pre,3,5,3,sound,1.4783,1,multi-first
107,Pre,3,6,2,sound,1.2658,1,single
107,Pre,3,7,2,sound,1.0912,1,single
107,Pre,3,8,1,shape,1.2203,1,single
107,Pre,3,9,2,sound,1.0134,1,single
107,Pre,3,10,2,sound,1.0223,1,single
107,Pre,3,11,3,shape,2.1289,1,multi-first
107,Pre,3,11,3,sound,2.2089,1,multi-second
107,Pre,3,12,3,shape,1.101,1,multi-first
107,Pre,3,12,3,sound,1.152,1,multi-second
107,Pre,3,13,1,shape,1.0062,1,single
107,Pre,3,14,1,shape,1.4782,1,single
107,Pre,3,15,3,shape,2.1292,1,multi-second
107,Pre,3,15,3,sound,2.1132,1,multi-first
107,Pre,3,16,3,shape,2.0591,1,multi-first
107,Pre,3,16,3,sound,2.1031,1,multi-second
107,Pre,3,17,2,sound,1.3412,1,single
107,Pre,3,18,3,shape,2.8378,1,multi-second
107,Pre,3,18,3,sound,2.8188,1,multi-first
107,Pre,4,1,2,sound,0.93464,1,single
107,Pre,4,2,3,shape,1.5941,1,multi-second
107,Pre,4,2,3,sound,1.5861,1,multi-first
107,Pre,4,3,1,shape,1.3529,1,single
107,Pre,4,4,1,shape,0.79302,1,single
107,Pre,4,5,1,shape,0.99301,1,single
107,Pre,4,6,3,shape,2.082,1,multi-first
107,Pre,4,6,3,sound,2.103,1,multi-second
107,Pre,4,7,3,shape,3.0891,1,multi-second
107,Pre,4,7,3,sound,3.0521,1,multi-first
107,Pre,4,8,3,shape,2.8551,1,multi-first
107,Pre,4,8,3,sound,2.8811,1,multi-second
107,Pre,4,9,1,shape,0.87232,1,single
107,Pre,4,10,1,shape,0.73611,1,single
107,Pre,4,11,2,sound,1.4672,1,single
107,Pre,4,12,3,shape,2.9892,1,multi-first
107,Pre,4,12,3,sound,3.0442,1,multi-second
107,Pre,4,13,2,sound,1.0785,1,single
107,Pre,4,14,2,sound,0.70188,1,single
107,Pre,4,15,2,sound,0.864,1,single
107,Pre,4,16,1,shape,1.0129,1,single
107,Pre,4,17,2,sound,1.0399,1,single
107,Pre,4,18,3,shape,1.6561,1,multi-first
107,Pre,4,18,3,sound,1.6781,1,multi-second
107,Pre,5,1,3,shape,2.2239,1,multi-second
107,Pre,5,1,3,sound,2.2019,1,multi-first
107,Pre,5,2,3,shape,2.7905,1,multi-second
107,Pre,5,2,3,sound,2.7765,1,multi-first
107,Pre,5,3,1,shape,1.1864,1,single
107,Pre,5,4,1,shape,0.73712,1,single
107,Pre,5,5,1,shape,0.57371,1,single
107,Pre,5,6,2,sound,1.1678,1,single
107,Pre,5,7,2,sound,1.0368,1,single
107,Pre,5,8,3,shape,2.613,1,multi-second
107,Pre,5,8,3,sound,2.386,1,multi-first
107,Pre,5,9,2,sound,1.0572,1,single
107,Pre,5,10,3,shape,1.5457,1,multi-second
107,Pre,5,10,3,sound,1.5247,1,multi-first
107,Pre,5,11,1,shape,1.2173,1,single
107,Pre,5,13,3,shape,1.5986,1,multi-first
107,Pre,5,13,3,sound,1.6146,1,multi-second
107,Pre,5,14,2,sound,1.2525,1,single
107,Pre,5,15,1,shape,0.7765,1,single
107,Pre,5,16,3,shape,1.6865,1,multi-second
107,Pre,5,16,3,sound,1.6595,1,multi-first
107,Pre,5,17,2,sound,0.91667,1,single
107,Pre,5,18,1,shape,0.9655,1,single
107,Pre,6,1,1,shape,0.99336,1,single
107,Pre,6,2,2,sound,1.1678,1,single
107,Pre,6,3,1,shape,1.4057,1,single
107,Pre,6,4,1,shape,1.1272,1,single
107,Pre,6,5,3,shape,1.8671,1,multi-first
107,Pre,6,5,3,sound,1.9681,1,multi-second
107,Pre,6,6,3,shape,1.6038,1,multi-second
107,Pre,6,6,3,sound,1.5458,1,multi-first
107,Pre,6,7,3,shape,0.8991,1,multi-first
107,Pre,6,7,3,sound,0.9091,1,multi-second
107,Pre,6,8,2,sound,1.2702,1,single
107,Pre,6,9,1,shape,1.6205,1,single
107,Pre,6,10,2,sound,0.9784,1,single
107,Pre,6,11,2,sound,1.3265,1,single
107,Pre,6,12,1,shape,0.92732,1,single
107,Pre,6,13,2,sound,1.0533,1,single
107,Pre,6,14,3,shape,1.4505,1,multi-first
107,Pre,6,14,3,sound,1.4785,1,multi-second
107,Pre,6,15,3,shape,1.7213,1,multi-first
107,Pre,6,15,3,sound,1.8893,1,multi-second
107,Pre,6,17,3,shape,2.3183,1,multi-second
107,Pre,6,17,3,sound,2.3063,1,multi-first
107,Pre,6,18,2,sound,1.0424,1,single
109,Pre,1,1,2,sound,1.3929,1,single
109,Pre,1,2,2,sound,0.89574,1,single
109,Pre,1,3,1,shape,1.1458,1,single
109,Pre,1,4,1,shape,0.93295,1,single
109,Pre,1,5,2,sound,0.85131,1,single
109,Pre,1,6,1,shape,1.1918,1,single
109,Pre,1,7,2,sound,1.1512,1,single
109,Pre,1,8,3,shape,1.2689,1,multi-second
109,Pre,1,8,3,sound,0.93894,1,multi-first
109,Pre,1,9,3,shape,1.5167,1,multi-second
109,Pre,1,9,3,sound,0.78972,1,multi-first
109,Pre,1,10,1,shape,1.1882,1,single
109,Pre,1,11,3,shape,1.7607,1,multi-second
109,Pre,1,11,3,sound,1.3888,1,multi-first
109,Pre,1,12,2,sound,1.0576,1,single
109,Pre,1,13,1,shape,1.0441,1,single
109,Pre,1,14,3,shape,1.0587,1,multi-second
109,Pre,1,14,3,sound,0.62465,1,multi-first
109,Pre,1,15,2,sound,1.1042,1,single
109,Pre,1,16,3,shape,1.272,1,multi-second
109,Pre,1,16,3,sound,0.83498000000000006,1,multi-first
109,Pre,1,17,1,shape,0.98159,1,single
109,Pre,1,18,3,shape,1.5387,1,multi-second
109,Pre,1,18,3,sound,0.99177,1,multi-first
109,Pre,2,1,2,sound,1.0367,1,single
109,Pre,2,2,3,shape,1.5878,1,multi-second
109,Pre,2,2,3,sound,1.1928,1,multi-first
109,Pre,2,3,3,shape,1.2917,1,multi-second
109,Pre,2,3,3,sound,0.8577,1,multi-first
109,Pre,2,4,1,shape,1.1153,1,single
109,Pre,2,5,1,shape,0.89928,1,single
109,Pre,2,6,2,sound,1.1463,1,single
109,Pre,2,7,1,shape,1.0139,1,single
109,Pre,2,8,1,shape,0.67042,1,single
109,Pre,2,9,3,shape,1.8323,1,multi-second
109,Pre,2,9,3,sound,1.5033,1,multi-first
109,Pre,2,10,2,sound,2.0823,1,single
109,Pre,2,11,2,sound,0.8244,1,single
109,Pre,2,12,1,shape,1.1402,1,single
109,Pre,2,13,2,sound,1.0933,1,single
109,Pre,2,14,3,shape,1.4594,1,multi-second
109,Pre,2,14,3,sound,1.0574,1,multi-first
109,Pre,2,15,2,sound,1.2453,1,single
109,Pre,2,16,3,shape,1.3983,1,multi-second
109,Pre,2,16,3,sound,1.0183,1,multi-first
109,Pre,2,17,3,shape,2.0394,1,multi-second
109,Pre,2,17,3,sound,1.6114,1,multi-first
109,Pre,2,18,1,shape,1.1365,1,single
109,Pre,3,1,2,sound,1.0822,1,single
109,Pre,3,2,3,shape,1.4303,1,multi-second
109,Pre,3,2,3,sound,0.93026,1,multi-first
109,Pre,3,3,1,shape,0.98321,1,single
109,Pre,3,4,2,sound,1.1303,1,single
109,Pre,3,5,2,sound,0.93103,1,single
109,Pre,3,6,1,shape,1.1162,1,single
109,Pre,3,7,3,shape,1.5263,1,multi-second
109,Pre,3,7,3,sound,1.0623,1,multi-first
109,Pre,3,8,2,sound,0.95223,1,single
109,Pre,3,10,1,shape,0.78686,1,single
109,Pre,3,11,1,shape,0.78603,1,single
109,Pre,3,12,2,sound,1.1393,1,single
109,Pre,3,13,3,shape,1.5901,1,multi-second
109,Pre,3,13,3,sound,1.1851,1,multi-first
109,Pre,3,14,2,sound,0.94306,1,single
109,Pre,3,15,1,shape,0.91703,1,single
109,Pre,3,16,3,shape,1.8657,1,multi-second
109,Pre,3,16,3,sound,1.2747,1,multi-first
109,Pre,3,17,3,shape,1.3732,1,multi-second
109,Pre,3,17,3,sound,0.86219,1,multi-first
109,Pre,3,18,3,shape,1.3882,1,multi-second
109,Pre,3,18,3,sound,1.1013,1,multi-first
109,Pre,4,1,2,sound,1.5448,1,single
109,Pre,4,2,1,shape,1.2401,1,single
109,Pre,4,4,3,shape,1.2831,1,multi-second
109,Pre,4,4,3,sound,0.90709,1,multi-first
109,Pre,4,5,1,shape,0.99477,1,single
109,Pre,4,6,3,shape,1.5751,1,multi-second
109,Pre,4,6,3,sound,1.043,1,multi-first
109,Pre,4,7,2,sound,1.1712,1,single
109,Pre,4,8,2,sound,0.89106,1,single
109,Pre,4,9,3,shape,1.4656,1,multi-second
109,Pre,4,9,3,sound,0.87063,1,multi-first
109,Pre,4,10,2,sound,1.1258,1,single
109,Pre,4,11,3,shape,1.536,1,multi-second
109,Pre,4,11,3,sound,1.063,1,multi-first
109,Pre,4,12,3,shape,1.5298,1,multi-second
109,Pre,4,12,3,sound,1.1198,1,multi-first
109,Pre,4,13,3,shape,1.6871,1,multi-second
109,Pre,4,13,3,sound,1.3121,1,multi-first
109,Pre,4,14,1,shape,0.86807,1,single
109,Pre,4,15,1,shape,0.82663,1,single
109,Pre,4,16,1,shape,1.009,1,single
109,Pre,4,17,2,sound,1.1757,1,single
109,Pre,4,18,1,shape,1.0588,1,single
109,Pre,5,1,2,sound,0.87309,1,single
109,Pre,5,2,2,sound,0.73165,1,single
109,Pre,5,4,1,shape,0.65516,1,single
109,Pre,5,5,2,sound,1.1475,1,single
109,Pre,5,7,2,sound,1.1128,1,single
109,Pre,5,8,3,shape,1.7543,1,multi-second
109,Pre,5,8,3,sound,1.4713,1,multi-first
109,Pre,5,9,3,shape,1.2003,1,multi-second
109,Pre,5,9,3,sound,0.86226,1,multi-first
109,Pre,5,10,1,shape,1.3171,1,single
109,Pre,5,11,3,shape,1.5942,1,multi-second
109,Pre,5,11,3,sound,1.2102,1,multi-first
109,Pre,5,12,2,sound,1.0042,1,single
109,Pre,5,13,1,shape,0.91814,1,single
109,Pre,5,14,3,shape,1.5763,1,multi-second
109,Pre,5,14,3,sound,1.0773,1,multi-first
109,Pre,5,15,2,sound,0.85818,1,single
109,Pre,5,16,3,shape,1.5977,1,multi-second
109,Pre,5,16,3,sound,1.2157,1,multi-first
109,Pre,5,17,1,shape,0.93438,1,single
109,Pre,5,18,3,shape,1.8296,1,multi-second
109,Pre,5,18,3,sound,1.2996,1,multi-first
109,Pre,6,1,2,sound,1.0567,1,single
109,Pre,6,2,3,shape,1.4176,1,multi-second
109,Pre,6,2,3,sound,1.0026,1,multi-first
109,Pre,6,3,3,shape,1.4336,1,multi-second
109,Pre,6,3,3,sound,1.0326,1,multi-first
109,Pre,6,4,1,shape,0.74629,1,single
109,Pre,6,5,1,shape,0.83519,1,single
109,Pre,6,6,2,sound,1.0682,1,single
109,Pre,6,7,1,shape,0.78422,1,single
109,Pre,6,8,1,shape,0.59899,1,single
109,Pre,6,9,3,shape,1.7011,1,multi-second
109,Pre,6,9,3,sound,1.1581,1,multi-first
109,Pre,6,10,2,sound,0.95112,1,single
109,Pre,6,11,2,sound,0.77293,1,single
109,Pre,6,12,1,shape,0.79202,1,single
109,Pre,6,13,2,sound,0.95411,1,single
109,Pre,6,15,2,sound,0.66517,1,single
109,Pre,6,16,3,shape,1.9171,1,multi-second
109,Pre,6,16,3,sound,1.4901,1,multi-first
109,Pre,6,17,3,shape,1.6843,1,multi-second
109,Pre,6,17,3,sound,1.1153,1,multi-first
109,Pre,6,18,1,shape,1.029,1,single
110,Pre,1,1,3,shape,2.3207,1,multi-second
110,Pre,1,1,3,sound,1.7757,1,multi-first
110,Pre,1,2,1,shape,1.3216,1,single
110,Pre,1,3,3,shape,1.7258,1,multi-second
110,Pre,1,3,3,sound,1.5208,1,multi-first
110,Pre,1,4,2,sound,1.3199,1,single
110,Pre,1,5,2,sound,1.2611,1,single
110,Pre,1,6,2,sound,1.0036,1,single
110,Pre,1,7,1,shape,1.0726,1,single
110,Pre,1,8,1,shape,0.79828,1,single
110,Pre,1,9,2,sound,1.0744,1,single
110,Pre,1,10,3,shape,1.8615,1,multi-second
110,Pre,1,10,3,sound,1.6085,1,multi-first
110,Pre,1,11,2,sound,1.3774,1,single
110,Pre,1,12,1,shape,1.1151,1,single
110,Pre,1,13,2,sound,1.1066,1,single
110,Pre,1,14,3,shape,1.2775,1,multi-second
110,Pre,1,14,3,sound,1.1025,1,multi-first
110,Pre,1,15,1,shape,0.91654,1,single
110,Pre,1,16,1,shape,0.65368,1,single
110,Pre,1,17,3,shape,1.9448,1,multi-second
110,Pre,1,17,3,sound,1.7808,1,multi-first
110,Pre,1,18,3,shape,1.254,1,multi-second
110,Pre,1,18,3,sound,1.062,1,multi-first
110,Pre,2,1,1,shape,0.87733,1,single
110,Pre,2,2,3,shape,1.8477,1,multi-second
110,Pre,2,2,3,sound,1.5637,1,multi-first
110,Pre,2,3,1,shape,0.94979,1,single
110,Pre,2,4,2,sound,1.5871,1,single
110,Pre,2,5,2,sound,0.96507,1,single
110,Pre,2,6,3,shape,1.3854,1,multi-second
110,Pre,2,6,3,sound,1.1494,1,multi-first
110,Pre,2,7,3,shape,1.5811,1,multi-second
110,Pre,2,7,3,sound,1.2381,1,multi-first
110,Pre,2,8,1,shape,0.87692,1,single
110,Pre,2,9,2,sound,1.1305,1,single
110,Pre,2,10,2,sound,0.96588,1,single
110,Pre,2,11,3,shape,1.5232,1,multi-second
110,Pre,2,11,3,sound,1.3562,1,multi-first
110,Pre,2,12,1,shape,0.90033,1,single
110,Pre,2,13,1,shape,0.83026,1,single
110,Pre,2,15,3,shape,1.9663,1,multi-second
110,Pre,2,15,3,sound,1.6353,1,multi-first
110,Pre,2,16,1,shape,0.81469,1,single
110,Pre,2,18,2,sound,1.2355,1,single
110,Pre,3,1,2,sound,0.86102,1,single
110,Pre,3,3,3,shape,1.5692,1,multi-second
110,Pre,3,3,3,sound,1.3812,1,multi-first
110,Pre,3,4,1,shape,0.7209,1,single
110,Pre,3,5,1,shape,0.76909,1,single
110,Pre,3,6,2,sound,1.2053,1,single
110,Pre,3,7,2,sound,1.0394,1,single
110,Pre,3,8,1,shape,0.9107,1,single
110,Pre,3,9,3,shape,1.4712,1,multi-second
110,Pre,3,9,3,sound,1.3473,1,multi-first
110,Pre,3,10,2,sound,1.2072,1,single
110,Pre,3,11,3,shape,1.9503,1,multi-second
110,Pre,3,11,3,sound,1.8103,1,multi-first
110,Pre,3,12,2,sound,1.2183,1,single
110,Pre,3,14,2,sound,1.2191,1,single
110,Pre,3,16,3,shape,1.4989,1,multi-second
110,Pre,3,16,3,sound,1.3209,1,multi-first
110,Pre,3,17,3,shape,1.6673,1,multi-second
110,Pre,3,17,3,sound,1.5133,1,multi-first
110,Pre,3,18,3,shape,1.5391,1,multi-second
110,Pre,3,18,3,sound,1.3691,1,multi-first
110,Pre,4,2,3,shape,1.7089,1,multi-second
110,Pre,4,2,3,sound,1.5409,1,multi-first
110,Pre,4,3,3,shape,1.7101,1,multi-second
110,Pre,4,3,3,sound,1.5741,1,multi-first
110,Pre,4,5,2,sound,0.90729,1,single
110,Pre,4,6,2,sound,1.0641,1,single
110,Pre,4,7,3,shape,1.302,1,multi-second
110,Pre,4,7,3,sound,1.174,1,multi-first
110,Pre,4,8,1,shape,0.85893,1,single
110,Pre,4,9,3,shape,1.4708,1,multi-second
110,Pre,4,9,3,sound,1.3258,1,multi-first
110,Pre,4,10,1,shape,1.213,1,single
110,Pre,4,11,1,shape,0.93395,1,single
110,Pre,4,12,1,shape,0.8482,1,single
110,Pre,4,14,2,sound,0.85109,1,single
110,Pre,4,15,2,sound,1.0629,1,single
110,Pre,4,16,1,shape,0.715,1,single
110,Pre,4,17,1,shape,0.83903,1,single
110,Pre,4,18,3,shape,1.5689,1,multi-second
110,Pre,4,18,3,sound,1.423,1,multi-first
110,Pre,5,1,3,shape,1.3717,1,multi-second
110,Pre,5,1,3,sound,1.1267,1,multi-first
110,Pre,5,2,2,sound,1.1185,1,single
110,Pre,5,3,2,sound,0.93224,1,single
110,Pre,5,5,3,shape,1.672,1,multi-second
110,Pre,5,5,3,sound,1.417,1,multi-first
110,Pre,5,6,1,shape,0.82443,1,single
110,Pre,5,7,1,shape,0.75628,1,single
110,Pre,5,8,2,sound,0.96691,1,single
110,Pre,5,9,3,shape,1.612,1,multi-second
110,Pre,5,9,3,sound,1.334,1,multi-first
110,Pre,5,10,1,shape,1.0355,1,single
110,Pre,5,11,3,shape,2.1833,1,multi-second
110,Pre,5,11,3,sound,1.9743,1,multi-first
110,Pre,5,12,2,sound,1.3581,1,single
110,Pre,5,13,3,shape,1.3546,1,multi-second
110,Pre,5,13,3,sound,1.1916,1,multi-first
110,Pre,5,14,2,sound,0.78063,1,single
110,Pre,5,15,1,shape,0.88227,1,single
110,Pre,5,16,2,sound,0.92014,1,single
110,Pre,5,17,1,shape,0.97068,1,single
110,Pre,5,18,1,shape,0.65843,1,single
110,Pre,6,1,1,shape,0.7704,1,single
110,Pre,6,2,2,sound,1.0796,1,single
110,Pre,6,3,1,shape,0.64636,1,single
110,Pre,6,4,1,shape,0.61036,1,single
110,Pre,6,5,3,shape,1.9036,1,multi-second
110,Pre,6,5,3,sound,1.7546,1,multi-first
110,Pre,6,6,3,shape,1.151,1,multi-second
110,Pre,6,6,3,sound,1.0171,1,multi-first
110,Pre,6,7,3,shape,1.5316,1,multi-second
110,Pre,6,7,3,sound,1.3827,1,multi-first
110,Pre,6,8,2,sound,1.0592,1,single
110,Pre,6,9,2,sound,0.9162,1,single
110,Pre,6,10,2,sound,0.87212,1,single
110,Pre,6,11,3,shape,1.6681,1,multi-second
110,Pre,6,11,3,sound,1.5731,1,multi-first
110,Pre,6,12,3,shape,1.5352,1,multi-second
110,Pre,6,12,3,sound,1.4112,1,multi-first
110,Pre,6,14,2,sound,1.0347,1,single
110,Pre,6,15,2,sound,0.67338,1,single
110,Pre,6,16,1,shape,0.80434,1,single
110,Pre,6,17,1,shape,0.71701,1,single
110,Pre,6,18,1,shape,0.69707,1,single
111,Pre,1,1,1,shape,1.188,1,single
111,Pre,1,2,3,shape,0.69676,1,multi-first
111,Pre,1,2,3,sound,1.7598,1,multi-second
111,Pre,1,3,1,shape,0.65983,1,single
111,Pre,1,4,1,shape,1.0106,1,single
111,Pre,1,5,3,shape,1.3869,1,multi-first
111,Pre,1,5,3,sound,1.3949,1,multi-second
111,Pre,1,6,2,sound,1.315,1,single
111,Pre,1,7,2,sound,1.0604,1,single
111,Pre,1,8,2,sound,0.77658,1,single
111,Pre,1,10,3,shape,1.6632,1,multi-first
111,Pre,1,10,3,sound,2.0352,1,multi-second
111,Pre,1,11,1,shape,1.2117,1,single
111,Pre,1,12,3,shape,2.1527,1,multi-first
111,Pre,1,12,3,sound,2.4297,1,multi-second
111,Pre,1,13,2,sound,1.0623,1,single
111,Pre,1,14,1,shape,0.93669,1,single
111,Pre,1,15,3,shape,2.1332,1,multi-first
111,Pre,1,15,3,sound,2.2312,1,multi-second
111,Pre,1,16,2,sound,1.1071,1,single
111,Pre,1,17,1,shape,0.77833,1,single
111,Pre,1,18,2,sound,1.1751,1,single
111,Pre,2,1,3,shape,2.04,1,multi-second
111,Pre,2,1,3,sound,2.038,1,multi-first
111,Pre,2,2,2,sound,1.2869,1,single
111,Pre,2,3,1,shape,1.1944,1,single
111,Pre,2,4,2,sound,0.90943,1,single
111,Pre,2,5,3,shape,1.1292,1,multi-first
111,Pre,2,5,3,sound,1.9692,1,multi-second
111,Pre,2,7,1,shape,1.0396,1,single
111,Pre,2,8,2,sound,1.2342,1,single
111,Pre,2,9,2,sound,0.84937,1,single
111,Pre,2,10,3,shape,2.2495,1,multi-first
111,Pre,2,10,3,sound,2.3475,1,multi-second
111,Pre,2,11,1,shape,0.96229,1,single
111,Pre,2,12,3,shape,1.332,1,multi-first
111,Pre,2,12,3,sound,1.415,1,multi-second
111,Pre,2,13,2,sound,1.0835,1,single
111,Pre,2,14,1,shape,1.1242,1,single
111,Pre,2,15,3,shape,1.7334,1,multi-second
111,Pre,2,15,3,sound,1.7184,1,multi-first
111,Pre,2,16,2,sound,1.2419,1,single
111,Pre,2,17,1,shape,0.70536,1,single
111,Pre,2,18,1,shape,1.0043,1,single
111,Pre,3,1,1,shape,0.83,1,single
111,Pre,3,2,2,sound,1.0662,1,single
111,Pre,3,3,1,shape,0.87426,1,single
111,Pre,3,4,1,shape,0.75036,1,single
111,Pre,3,5,3,shape,2.0222,1,multi-second
111,Pre,3,5,3,sound,2.0152,1,multi-first
111,Pre,3,6,1,shape,0.72413,1,single
111,Pre,3,7,2,sound,1.0556,1,single
111,Pre,3,8,2,sound,1.169,1,single
111,Pre,3,9,2,sound,0.89215,1,single
111,Pre,3,10,3,shape,1.5001,1,multi-first
111,Pre,3,10,3,sound,1.5211,1,multi-second
111,Pre,3,11,1,shape,0.89497,1,single
111,Pre,3,12,3,shape,1.2572,1,multi-second
111,Pre,3,12,3,sound,1.2552,1,multi-first
111,Pre,3,13,2,sound,0.94325,1,single
111,Pre,3,14,3,shape,2.1101,1,multi-second
111,Pre,3,14,3,sound,2.1011,1,multi-first
111,Pre,3,15,3,shape,1.7429,1,multi-first
111,Pre,3,15,3,sound,1.8089,1,multi-second
111,Pre,3,16,2,sound,1.258,1,single
111,Pre,3,17,3,shape,1.5661,1,multi-first
111,Pre,3,17,3,sound,1.6121,1,multi-second
111,Pre,3,18,1,shape,0.83602,1,single
111,Pre,4,1,1,shape,0.96931,1,single
111,Pre,4,2,2,sound,1.3575,1,single
111,Pre,4,3,3,shape,2.444,1,multi-first
111,Pre,4,3,3,sound,2.468,1,multi-second
111,Pre,4,4,1,shape,0.72373,1,single
111,Pre,4,5,2,sound,1.2701,1,single
111,Pre,4,6,2,sound,1.1279,1,single
111,Pre,4,7,2,sound,1.6389,1,single
111,Pre,4,8,2,sound,0.78108,1,single
111,Pre,4,9,3,shape,1.4229,1,multi-second
111,Pre,4,9,3,sound,1.4129,1,multi-first
111,Pre,4,10,3,shape,1.557,1,multi-first
111,Pre,4,10,3,sound,1.559,1,multi-second
111,Pre,4,11,3,shape,1.3041,1,multi-second
111,Pre,4,11,3,sound,1.2981,1,multi-first
111,Pre,4,13,3,shape,2.2926,1,multi-second
111,Pre,4,13,3,sound,2.2756,1,multi-first
111,Pre,4,14,1,shape,1.3679,1,single
111,Pre,4,15,3,shape,2.7737,1,multi-first
111,Pre,4,15,3,sound,2.7807,1,multi-second
111,Pre,4,16,1,shape,1.1079,1,single
111,Pre,4,17,1,shape,0.84175,1,single
111,Pre,4,18,2,sound,1.3749,1,single
111,Pre,5,1,1,shape,0.66242,1,single
111,Pre,5,2,3,shape,1.9794,1,multi-first
111,Pre,5,2,3,sound,2.0014,1,multi-second
111,Pre,5,3,1,shape,1.1831,1,single
111,Pre,5,4,1,shape,1.3994,1,single
111,Pre,5,5,3,shape,2.1131,1,multi-first
111,Pre,5,5,3,sound,2.1731,1,multi-second
111,Pre,5,6,2,sound,1.8135,1,single
111,Pre,5,7,2,sound,0.87617,1,single
111,Pre,5,8,2,sound,0.98659,1,single
111,Pre,5,9,3,shape,1.5232,1,multi-second
111,Pre,5,9,3,sound,1.5061,1,multi-first
111,Pre,5,10,3,shape,2.0843,1,multi-first
111,Pre,5,10,3,sound,2.0983,1,multi-second
111,Pre,5,12,3,shape,2.1723,1,multi-first
111,Pre,5,12,3,sound,2.2023,1,multi-second
111,Pre,5,13,2,sound,1.1316,1,single
111,Pre,5,14,1,shape,0.97348,1,single
111,Pre,5,15,3,shape,2.0713,1,multi-second
111,Pre,5,15,3,sound,1.9783,1,multi-first
111,Pre,5,16,2,sound,1.0823,1,single
111,Pre,5,17,1,shape,0.95333,1,single
111,Pre,5,18,2,sound,1.1646,1,single
111,Pre,6,1,3,shape,2.0305,1,multi-first
111,Pre,6,1,3,sound,2.0345,1,multi-second
111,Pre,6,2,2,sound,1.1542,1,single
111,Pre,6,5,3,shape,1.7731,1,multi-first
111,Pre,6,5,3,sound,1.8091,1,multi-second
111,Pre,6,6,3,shape,1.8643,1,multi-first
111,Pre,6,6,3,sound,1.8913,1,multi-second
111,Pre,6,7,1,shape,1.0892,1,single
111,Pre,6,8,2,sound,1.723,1,single
111,Pre,6,9,2,sound,0.94295,1,single
111,Pre,6,11,1,shape,0.76318,1,single
111,Pre,6,12,3,shape,2.2972,1,multi-first
111,Pre,6,12,3,sound,2.3272,1,multi-second
111,Pre,6,13,2,sound,1.2962,1,single
111,Pre,6,14,1,shape,1.7353,1,single
111,Pre,6,15,3,shape,1.5982,1,multi-first
111,Pre,6,15,3,sound,1.6082,1,multi-second
111,Pre,6,16,2,sound,1.4574,1,single
111,Pre,6,18,1,shape,0.9634,1,single
112,Pre,1,3,3,shape,1.5701,1,multi-second
112,Pre,1,3,3,sound,1.5681,1,multi-first
112,Pre,1,4,2,sound,0.55398,1,single
112,Pre,1,5,3,shape,1.481,1,multi-first
112,Pre,1,5,3,sound,1.494,1,multi-second
112,Pre,1,6,1,shape,0.64415,1,single
112,Pre,1,7,3,shape,0.80805,1,multi-first
112,Pre,1,7,3,sound,0.87302,1,multi-second
112,Pre,1,8,2,sound,0.56604,1,single
112,Pre,1,9,3,shape,0.93179,1,multi-first
112,Pre,1,9,3,sound,1.0388,1,multi-second
112,Pre,1,10,1,shape,0.57608,1,single
112,Pre,1,11,2,sound,1.0011,1,single
112,Pre,1,12,2,sound,0.91615,1,single
112,Pre,1,13,1,shape,0.60236,1,single
112,Pre,1,14,3,shape,1.2158,1,multi-second
112,Pre,1,14,3,sound,1.2067,1,multi-first
112,Pre,1,15,1,shape,0.4482,1,single
112,Pre,1,16,2,sound,0.73047,1,single
112,Pre,1,17,3,shape,0.72663,1,multi-second
112,Pre,1,17,3,sound,0.70561,1,multi-first
112,Pre,1,18,1,shape,0.67165,1,single
112,Pre,2,2,1,shape,0.72319,1,single
112,Pre,2,4,1,shape,0.69379,1,single
112,Pre,2,5,3,shape,0.90951,1,multi-second
112,Pre,2,5,3,sound,0.8955,1,multi-first
112,Pre,2,6,3,shape,0.85673,1,multi-second
112,Pre,2,6,3,sound,0.85479,1,multi-first
112,Pre,2,7,3,shape,0.94188,1,multi-second
112,Pre,2,7,3,sound,0.92787,1,multi-first
112,Pre,2,8,2,sound,0.59967,1,single
112,Pre,2,9,2,sound,0.58158,1,single
112,Pre,2,10,2,sound,0.65187,1,single
112,Pre,2,11,1,shape,0.44262,1,single
112,Pre,2,12,3,shape,0.72654,1,multi-first
112,Pre,2,12,3,sound,0.73457,1,multi-second
112,Pre,2,13,1,shape,0.54991,1,single
112,Pre,2,14,1,shape,0.60867,1,single
112,Pre,2,15,2,sound,0.47171,1,single
112,Pre,2,16,2,sound,0.79482,1,single
112,Pre,2,17,1,shape,0.50273,1,single
112,Pre,3,1,3,shape,1.2729,1,multi-second
112,Pre,3,1,3,sound,1.2489,1,multi-first
112,Pre,3,2,3,shape,0.70333,1,multi-second
112,Pre,3,2,3,sound,0.69134,1,multi-first
112,Pre,3,3,3,shape,0.71421,1,multi-second
112,Pre,3,3,3,sound,0.70724,1,multi-first
112,Pre,3,4,2,sound,0.93269,1,single
112,Pre,3,6,2,sound,0.74613,1,single
112,Pre,3,7,2,sound,0.57451,1,single
112,Pre,3,8,2,sound,0.70899,1,single
112,Pre,3,9,1,shape,0.8008,1,single
112,Pre,3,10,1,shape,0.46285,1,single
112,Pre,3,11,1,shape,0.61878,1,single
112,Pre,3,12,2,sound,0.51391,1,single
112,Pre,3,13,1,shape,0.56076,1,single
112,Pre,3,15,3,shape,0.90752,1,multi-first
112,Pre,3,15,3,sound,0.90949,1,multi-second
112,Pre,3,16,1,shape,0.71012,1,single
112,Pre,3,17,2,sound,1.0449,1,single
112,Pre,3,18,3,shape,1.0811,1,multi-second
112,Pre,3,18,3,sound,1.0281,1,multi-first
112,Pre,4,1,1,shape,0.58133,1,single
112,Pre,4,2,3,shape,1.0128,1,multi-first
112,Pre,4,2,3,sound,1.0178,1,multi-second
112,Pre,4,3,2,sound,0.52693,1,single
112,Pre,4,4,2,sound,0.63781,1,single
112,Pre,4,5,1,shape,0.53473,1,single
112,Pre,4,6,2,sound,0.44376,1,single
112,Pre,4,7,3,shape,0.6917,1,multi-first
112,Pre,4,7,3,sound,0.7417,1,multi-second
112,Pre,4,8,2,sound,0.91457,1,single
112,Pre,4,9,3,shape,0.93339,1,multi-first
112,Pre,4,9,3,sound,0.96441,1,multi-second
112,Pre,4,10,1,shape,0.73667,1,single
112,Pre,4,11,2,sound,0.58567,1,single
112,Pre,4,12,1,shape,0.52483,1,single
112,Pre,4,13,1,shape,0.68191,1,single
112,Pre,4,14,3,shape,0.82992,1,multi-second
112,Pre,4,14,3,sound,0.79287,1,multi-first
112,Pre,4,16,3,shape,1.1047,1,multi-second
112,Pre,4,16,3,sound,1.0927,1,multi-first
112,Pre,4,17,3,shape,1.3025,1,multi-second
112,Pre,4,17,3,sound,1.2645,1,multi-first
112,Pre,4,18,1,shape,0.6507,1,single
112,Pre,5,1,2,sound,1.0517,1,single
112,Pre,5,2,1,shape,0.68736,1,single
112,Pre,5,3,3,shape,0.81825,1,multi-first
112,Pre,5,3,3,sound,0.82521,1,multi-second
112,Pre,5,4,2,sound,0.54138,1,single
112,Pre,5,5,3,shape,1.1081,1,multi-first
112,Pre,5,5,3,sound,1.1251,1,multi-second
112,Pre,5,6,1,shape,0.59228,1,single
112,Pre,5,7,3,shape,1.0881,1,multi-second
112,Pre,5,7,3,sound,1.0651,1,multi-first
112,Pre,5,8,2,sound,0.71826,1,single
112,Pre,5,9,3,shape,0.9645,1,multi-second
112,Pre,5,9,3,sound,0.95155,1,multi-first
112,Pre,5,10,1,shape,0.5398,1,single
112,Pre,5,11,2,sound,0.51287,1,single
112,Pre,5,12,2,sound,0.68176,1,single
112,Pre,5,13,1,shape,0.5552,1,single
112,Pre,5,14,3,shape,1.0098,1,multi-second
112,Pre,5,14,3,sound,0.96592,1,multi-first
112,Pre,5,15,1,shape,0.55786,1,single
112,Pre,5,16,2,sound,0.66417,1,single
112,Pre,5,18,1,shape,0.78111,1,single
112,Pre,6,1,2,sound,0.87664,1,single
112,Pre,6,2,1,shape,0.61911,1,single
112,Pre,6,3,3,shape,1.2359,1,multi-second
112,Pre,6,3,3,sound,1.2169,1,multi-first
112,Pre,6,4,1,shape,0.6599,1,single
112,Pre,6,5,3,shape,1.1228,1,multi-second
112,Pre,6,5,3,sound,1.0768,1,multi-first
112,Pre,6,6,3,shape,1.0208,1,multi-second
112,Pre,6,6,3,sound,1.0138,1,multi-first
112,Pre,6,7,3,shape,1.4285,1,multi-second
112,Pre,6,7,3,sound,1.4055,1,multi-first
112,Pre,6,8,2,sound,0.73397,1,single
112,Pre,6,9,2,sound,0.68671,1,single
112,Pre,6,10,2,sound,0.75272,1,single
112,Pre,6,12,3,shape,1.0133,1,multi-second
112,Pre,6,12,3,sound,1.0084,1,multi-first
112,Pre,6,13,1,shape,0.57448,1,single
112,Pre,6,14,1,shape,0.53097,1,single
112,Pre,6,15,2,sound,0.51528,1,single
112,Pre,6,16,2,sound,0.79037,1,single
112,Pre,6,17,1,shape,0.47634,1,single
112,Pre,6,18,3,shape,1.2578,1,multi-second
112,Pre,6,18,3,sound,1.2278,1,multi-first
113,Pre,1,3,3,shape,2.1196,1,multi-first
113,Pre,1,3,3,sound,2.1306,1,multi-second
113,Pre,1,4,1,shape,2.3208,1,single
113,Pre,1,5,2,sound,1.1647,1,single
113,Pre,1,6,2,sound,0.7856,1,single
113,Pre,1,7,2,sound,0.73018,1,single
113,Pre,1,8,2,sound,0.85656,1,single
113,Pre,1,10,1,shape,0.89143,1,single
113,Pre,1,11,3,shape,2.5206,1,multi-first
113,Pre,1,11,3,sound,2.5316,1,multi-second
113,Pre,1,12,1,shape,1.4676,1,single
113,Pre,1,14,1,shape,0.95871,1,single
113,Pre,1,15,2,sound,1.1648,1,single
113,Pre,1,16,3,shape,1.8357,1,multi-first
113,Pre,1,16,3,sound,1.8417,1,multi-second
113,Pre,1,17,3,shape,1.2709,1,multi-first
113,Pre,1,17,3,sound,1.2809,1,multi-second
113,Pre,1,18,1,shape,1.1916,1,single
113,Pre,2,1,1,shape,2.0116,1,single
113,Pre,2,2,2,sound,0.77037,1,single
113,Pre,2,3,1,shape,0.57813,1,single
113,Pre,2,4,1,shape,0.80754,1,single
113,Pre,2,5,3,shape,3.1624,1,multi-first
113,Pre,2,5,3,sound,3.1734,1,multi-second
113,Pre,2,6,2,sound,1.1354,1,single
113,Pre,2,7,2,sound,1.1313,1,single
113,Pre,2,8,2,sound,0.56745,1,single
113,Pre,2,9,3,shape,2.6502,1,multi-second
113,Pre,2,9,3,sound,2.6482,1,multi-first
113,Pre,2,10,3,shape,0.98145,1,multi-first
113,Pre,2,10,3,sound,0.98745,1,multi-second
113,Pre,2,11,3,shape,1.0499,1,multi-second
113,Pre,2,11,3,sound,1.0379,1,multi-first
113,Pre,2,12,1,shape,2.1447,1,single
113,Pre,2,13,1,shape,0.94228,1,single
113,Pre,2,14,3,shape,2.4203,1,multi-first
113,Pre,2,14,3,sound,2.4273,1,multi-second
113,Pre,2,15,3,shape,1.0684,1,multi-first
113,Pre,2,15,3,sound,1.0744,1,multi-second
113,Pre,2,16,1,shape,1.8351,1,single
113,Pre,2,17,2,sound,1.1303,1,single
113,Pre,2,18,2,sound,0.87735,1,single
113,Pre,3,2,2,sound,1.5374,1,single
113,Pre,3,3,1,shape,1.3424,1,single
113,Pre,3,5,2,sound,0.9815,1,single
113,Pre,3,6,2,sound,1.6333,1,single
113,Pre,3,7,3,shape,2.5468,1,multi-second
113,Pre,3,7,3,sound,2.5448,1,multi-first
113,Pre,3,8,1,shape,1.0493,1,single
113,Pre,3,9,3,shape,2.6519,1,multi-first
113,Pre,3,9,3,sound,2.6659,1,multi-second
113,Pre,3,10,3,shape,1.4772,1,multi-first
113,Pre,3,10,3,sound,1.4892,1,multi-second
113,Pre,3,11,3,shape,1.7682,1,multi-first
113,Pre,3,11,3,sound,1.7782,1,multi-second
113,Pre,3,12,2,sound,1.164,1,single
113,Pre,3,13,2,sound,0.80121,1,single
113,Pre,3,14,1,shape,1.2572,1,single
113,Pre,3,15,3,shape,1.6019,1,multi-first
113,Pre,3,15,3,sound,1.6129,1,multi-second
113,Pre,3,16,1,shape,1.1932,1,single
113,Pre,3,17,1,shape,1.376,1,single
113,Pre,3,18,1,shape,0.90493,1,single
113,Pre,4,1,1,shape,0.85845,1,single
113,Pre,4,2,1,shape,0.65915,1,single
113,Pre,4,3,1,shape,1.5291,1,single
113,Pre,4,4,3,shape,2.1832,1,multi-first
113,Pre,4,4,3,sound,2.1982,1,multi-second
113,Pre,4,5,3,shape,1.0453,1,multi-first
113,Pre,4,5,3,sound,1.0493,1,multi-second
113,Pre,4,6,2,sound,1.2491,1,single
113,Pre,4,7,3,shape,1.6679,1,multi-first
113,Pre,4,7,3,sound,1.6829,1,multi-second
113,Pre,4,8,2,sound,1.1531,1,single
113,Pre,4,9,3,shape,1.9159,1,multi-second
113,Pre,4,9,3,sound,1.9049,1,multi-first
113,Pre,4,10,3,shape,0.79198,1,multi-first
113,Pre,4,10,3,sound,0.81597,1,multi-second
113,Pre,4,11,1,shape,1.133,1,single
113,Pre,4,12,2,sound,1.8418,1,single
113,Pre,4,13,3,shape,1.3181,1,multi-first
113,Pre,4,13,3,sound,1.3471,1,multi-second
113,Pre,4,14,2,sound,1.1031,1,single
113,Pre,4,15,1,shape,0.89888,1,single
113,Pre,4,16,1,shape,0.77595,1,single
113,Pre,4,17,2,sound,0.96187,1,single
113,Pre,4,18,2,sound,0.81884,1,single
113,Pre,5,1,3,shape,2.216,1,multi-first
113,Pre,5,1,3,sound,2.228,1,multi-second
113,Pre,5,2,3,shape,1.1892,1,multi-second
113,Pre,5,2,3,sound,1.1872,1,multi-first
113,Pre,5,3,3,shape,1.8515,1,multi-first
113,Pre,5,3,3,sound,1.8595,1,multi-second
113,Pre,5,4,1,shape,1.127,1,single
113,Pre,5,5,2,sound,1.1305,1,single
113,Pre,5,6,2,sound,0.90547,1,single
113,Pre,5,7,2,sound,0.98728,1,single
113,Pre,5,8,2,sound,0.85808,1,single
113,Pre,5,9,1,shape,0.70044,1,single
113,Pre,5,10,1,shape,1.1769,1,single
113,Pre,5,11,3,shape,1.4053,1,multi-first
113,Pre,5,11,3,sound,1.4143,1,multi-second
113,Pre,5,12,1,shape,0.99567,1,single
113,Pre,5,13,2,sound,0.98224,1,single
113,Pre,5,14,1,shape,0.89609,1,single
113,Pre,5,15,2,sound,0.83368,1,single
113,Pre,5,16,3,shape,1.3274,1,multi-first
113,Pre,5,16,3,sound,1.3565,1,multi-second
113,Pre,5,17,3,shape,1.2761,1,multi-first
113,Pre,5,17,3,sound,1.2871,1,multi-second
113,Pre,5,18,1,shape,1.1605,1,single
113,Pre,6,1,1,shape,1.358,1,single
113,Pre,6,2,2,sound,1.0416,1,single
113,Pre,6,3,1,shape,0.66677,1,single
113,Pre,6,4,1,shape,1.8252,1,single
113,Pre,6,5,3,shape,1.7222,1,multi-first
113,Pre,6,5,3,sound,1.7322,1,multi-second
113,Pre,6,6,2,sound,0.9722,1,single
113,Pre,6,7,2,sound,1.6545,1,single
113,Pre,6,8,2,sound,0.73522,1,single
113,Pre,6,9,3,shape,2.2962,1,multi-first
113,Pre,6,9,3,sound,2.3022,1,multi-second
113,Pre,6,10,3,shape,0.77388,1,multi-first
113,Pre,6,10,3,sound,0.78388,1,multi-second
113,Pre,6,11,3,shape,0.6692,1,multi-first
113,Pre,6,11,3,sound,0.68319,1,multi-second
113,Pre,6,12,1,shape,2.0653,1,single
113,Pre,6,13,1,shape,0.62732,1,single
113,Pre,6,14,3,shape,1.7736,1,multi-first
113,Pre,6,14,3,sound,1.7966,1,multi-second
113,Pre,6,15,3,shape,0.84033,1,multi-first
113,Pre,6,15,3,sound,0.84232,1,multi-second
113,Pre,6,16,1,shape,0.98808,1,single
113,Pre,6,17,2,sound,0.95481,1,single
113,Pre,6,18,2,sound,1.1862,1,single
114,Pre,1,2,1,shape,0.99921,1,single
114,Pre,1,3,1,shape,0.78565,1,single
114,Pre,1,4,3,shape,0.80226,1,multi-second
114,Pre,1,4,3,sound,0.79426,1,multi-first
114,Pre,1,5,3,shape,0.63244,1,multi-first
114,Pre,1,5,3,sound,0.68444,1,multi-second
114,Pre,1,6,2,sound,0.87072,1,single
114,Pre,1,7,2,sound,0.7612,1,single
114,Pre,1,8,2,sound,0.60402,1,single
114,Pre,1,9,2,sound,1.1334,1,single
114,Pre,1,10,3,shape,1.1643,1,multi-first
114,Pre,1,10,3,sound,1.1743,1,multi-second
114,Pre,1,11,2,sound,1.0011,1,single
114,Pre,1,12,1,shape,0.76413,1,single
114,Pre,1,13,3,shape,2.2326,1,multi-first
114,Pre,1,13,3,sound,2.3116,1,multi-second
114,Pre,1,14,1,shape,0.96477,1,single
114,Pre,1,15,3,shape,1.5367,1,multi-first
114,Pre,1,15,3,sound,1.5607,1,multi-second
114,Pre,1,17,1,shape,0.63615,1,single
114,Pre,1,18,1,shape,0.61963,1,single
114,Pre,2,1,1,shape,0.65403,1,single
114,Pre,2,2,2,sound,1.3488,1,single
114,Pre,2,3,3,shape,1.9976,1,multi-first
114,Pre,2,3,3,sound,2.0116,1,multi-second
114,Pre,2,4,3,shape,1.3799,1,multi-second
114,Pre,2,4,3,sound,1.3579,1,multi-first
114,Pre,2,5,2,sound,1.5473,1,single
114,Pre,2,6,2,sound,0.92335,1,single
114,Pre,2,7,1,shape,1.0119,1,single
114,Pre,2,8,1,shape,0.68637,1,single
114,Pre,2,9,3,shape,1.6283,1,multi-second
114,Pre,2,9,3,sound,1.6183,1,multi-first
114,Pre,2,10,3,shape,1.0337,1,multi-second
114,Pre,2,10,3,sound,1.0047,1,multi-first
114,Pre,2,11,1,shape,0.78415,1,single
114,Pre,2,12,2,sound,1.0803,1,single
114,Pre,2,13,2,sound,1.5904,1,single
114,Pre,2,15,2,sound,1.3484,1,single
114,Pre,2,16,1,shape,0.56007,1,single
114,Pre,2,17,3,shape,1.2673,1,multi-first
114,Pre,2,17,3,sound,1.2763,1,multi-second
114,Pre,2,18,3,shape,1.6942,1,multi-second
114,Pre,2,18,3,sound,1.6882,1,multi-first
114,Pre,3,1,1,shape,0.57819,1,single
114,Pre,3,2,2,sound,0.8661,1,single
114,Pre,3,3,2,sound,1.3531,1,single
114,Pre,3,4,3,shape,0.99619,1,multi-second
114,Pre,3,4,3,sound,0.97819,1,multi-first
114,Pre,3,5,1,shape,0.66611,1,single
114,Pre,3,6,2,sound,1.256,1,single
114,Pre,3,7,1,shape,0.96334,1,single
114,Pre,3,8,1,shape,0.90633,1,single
114,Pre,3,9,3,shape,1.5708,1,multi-first
114,Pre,3,9,3,sound,1.5948,1,multi-second
114,Pre,3,10,1,shape,0.92815,1,single
114,Pre,3,11,2,sound,1.3152,1,single
114,Pre,3,12,3,shape,1.1958,1,multi-first
114,Pre,3,12,3,sound,1.2398,1,multi-second
114,Pre,3,13,2,sound,0.74257,1,single
114,Pre,3,14,1,shape,0.82028,1,single
114,Pre,3,15,3,shape,1.1492,1,multi-second
114,Pre,3,15,3,sound,1.1402,1,multi-first
114,Pre,3,16,3,shape,1.582,1,multi-first
114,Pre,3,16,3,sound,1.591,1,multi-second
114,Pre,3,17,3,shape,1.674,1,multi-second
114,Pre,3,17,3,sound,1.654,1,multi-first
114,Pre,3,18,2,sound,1.2441,1,single
114,Pre,4,1,3,shape,1.6089,1,multi-first
114,Pre,4,1,3,sound,1.6599,1,multi-second
114,Pre,4,2,1,shape,0.72708,1,single
114,Pre,4,3,3,shape,1.424,1,multi-first
114,Pre,4,3,3,sound,1.449,1,multi-second
114,Pre,4,4,1,shape,0.87485,1,single
114,Pre,4,5,2,sound,1.3861,1,single
114,Pre,4,6,2,sound,1.254,1,single
114,Pre,4,7,3,shape,1.5438,1,multi-first
114,Pre,4,7,3,sound,1.5608,1,multi-second
114,Pre,4,8,1,shape,0.72055,1,single
114,Pre,4,9,1,shape,0.8773,1,single
114,Pre,4,10,2,sound,1.2431,1,single
114,Pre,4,11,3,shape,1.6581,1,multi-second
114,Pre,4,11,3,sound,1.6371,1,multi-first
114,Pre,4,13,1,shape,0.80699,1,single
114,Pre,4,14,3,shape,1.046,1,multi-second
114,Pre,4,14,3,sound,1.025,1,multi-first
114,Pre,4,15,2,sound,0.93195,1,single
114,Pre,4,16,2,sound,1.5992,1,single
114,Pre,4,17,3,shape,1.082,1,multi-first
114,Pre,4,17,3,sound,1.17,1,multi-second
114,Pre,4,18,2,sound,0.94818,1,single
114,Pre,5,1,3,shape,2.1857,1,multi-first
114,Pre,5,1,3,sound,2.2307,1,multi-second
114,Pre,5,2,1,shape,0.88917,1,single
114,Pre,5,3,1,shape,0.61321,1,single
114,Pre,5,4,3,shape,1.7391,1,multi-second
114,Pre,5,4,3,sound,1.6981,1,multi-first
114,Pre,5,5,3,shape,1.0476,1,multi-first
114,Pre,5,5,3,sound,1.1076,1,multi-second
114,Pre,5,6,2,sound,1.1557,1,single
114,Pre,5,7,2,sound,0.66665,1,single
114,Pre,5,8,2,sound,0.67095,1,single
114,Pre,5,9,2,sound,1.3273,1,single
114,Pre,5,10,3,shape,1.2875,1,multi-first
114,Pre,5,10,3,sound,1.3435,1,multi-second
114,Pre,5,11,2,sound,1.1513,1,single
114,Pre,5,12,1,shape,1.4532,1,single
114,Pre,5,13,3,shape,1.3731,1,multi-second
114,Pre,5,13,3,sound,1.3641,1,multi-first
114,Pre,5,14,1,shape,1.3165,1,single
114,Pre,5,15,3,shape,1.7624,1,multi-first
114,Pre,5,15,3,sound,1.8004,1,multi-second
114,Pre,5,16,2,sound,1.1951,1,single
114,Pre,5,17,1,shape,0.80423,1,single
114,Pre,5,18,1,shape,0.67668,1,single
114,Pre,6,1,1,shape,0.70347,1,single
114,Pre,6,2,2,sound,1.1017,1,single
114,Pre,6,3,3,shape,1.1434,1,multi-first
114,Pre,6,3,3,sound,1.2244,1,multi-second
114,Pre,6,4,3,shape,1.6914,1,multi-second
114,Pre,6,4,3,sound,1.6404,1,multi-first
114,Pre,6,5,2,sound,1.1834,1,single
114,Pre,6,6,2,sound,0.723,1,single
114,Pre,6,7,1,shape,0.71879,1,single
114,Pre,6,8,1,shape,0.60809,1,single
114,Pre,6,9,3,shape,1.5237,1,multi-first
114,Pre,6,9,3,sound,1.7347,1,multi-second
114,Pre,6,11,1,shape,0.55578,1,single
114,Pre,6,12,2,sound,1.0073,1,single
114,Pre,6,13,2,sound,1.0853,1,single
114,Pre,6,14,1,shape,0.84833,1,single
114,Pre,6,15,2,sound,1.2615,1,single
114,Pre,6,16,1,shape,0.62043,1,single
114,Pre,6,17,3,shape,1.887,1,multi-second
114,Pre,6,17,3,sound,1.862,1,multi-first
114,Pre,6,18,3,shape,1.5902,1,multi-second
114,Pre,6,18,3,sound,1.5642,1,multi-first
115,Pre,1,1,1,shape,0.79421,1,single
115,Pre,1,2,3,shape,0.97365,1,multi-first
115,Pre,1,2,3,sound,1.7226,1,multi-second
115,Pre,1,3,2,sound,0.80728,1,single
115,Pre,1,4,1,shape,1.2527,1,single
115,Pre,1,5,2,sound,1.3899,1,single
115,Pre,1,6,2,sound,0.59855,1,single
115,Pre,1,7,3,shape,1.0083,1,multi-first
115,Pre,1,7,3,sound,1.2673,1,multi-second
115,Pre,1,8,3,shape,1.2657,1,multi-first
115,Pre,1,8,3,sound,1.6367,1,multi-second
115,Pre,1,9,3,shape,1.0915,1,multi-first
115,Pre,1,9,3,sound,1.4665,1,multi-second
115,Pre,1,10,1,shape,1.2734,1,single
115,Pre,1,11,3,shape,1.3524,1,multi-first
115,Pre,1,11,3,sound,1.6974,1,multi-second
115,Pre,1,12,1,shape,0.80133,1,single
115,Pre,1,13,2,sound,1.5235,1,single
115,Pre,1,14,2,sound,0.7007,1,single
115,Pre,1,15,3,shape,1.0206,1,multi-first
115,Pre,1,15,3,sound,1.3466,1,multi-second
115,Pre,1,16,2,sound,1.3926,1,single
115,Pre,1,17,1,shape,1.2591,1,single
115,Pre,1,18,1,shape,1.1357,1,single
115,Pre,2,1,2,sound,2.1645,1,single
115,Pre,2,2,3,shape,1.1265,1,multi-first
115,Pre,2,2,3,sound,1.3475,1,multi-second
115,Pre,2,4,3,shape,0.98725,1,multi-first
115,Pre,2,4,3,sound,1.2022,1,multi-second
115,Pre,2,5,1,shape,0.67428,1,single
115,Pre,2,6,3,shape,0.95843,1,multi-first
115,Pre,2,6,3,sound,1.2004,1,multi-second
115,Pre,2,8,3,shape,0.97521,1,multi-first
115,Pre,2,8,3,sound,1.2502,1,multi-second
115,Pre,2,9,1,shape,0.67609,1,single
115,Pre,2,10,3,shape,0.82931,1,multi-first
115,Pre,2,10,3,sound,1.0913,1,multi-second
115,Pre,2,12,2,sound,1.4793,1,single
115,Pre,2,13,2,sound,0.85114,1,single
115,Pre,2,14,1,shape,0.70514,1,single
115,Pre,2,15,1,shape,0.54892,1,single
115,Pre,2,16,1,shape,0.59733,1,single
115,Pre,2,17,2,sound,1.2903,1,single
115,Pre,2,18,1,shape,0.65437,1,single
115,Pre,3,1,2,sound,1.315,1,single
115,Pre,3,2,2,sound,0.63527,1,single
115,Pre,3,3,3,shape,1.6,1,multi-second
115,Pre,3,3,3,sound,1.157,1,multi-first
115,Pre,3,4,2,sound,1.2742,1,single
115,Pre,3,5,2,sound,0.9512,1,single
115,Pre,3,6,1,shape,0.88122,1,single
115,Pre,3,7,3,shape,1.7027,1,multi-first
115,Pre,3,7,3,sound,1.9217,1,multi-second
115,Pre,3,8,3,shape,1.4304,1,multi-second
115,Pre,3,8,3,sound,1.0614,1,multi-first
115,Pre,3,10,3,shape,0.84637,1,multi-first
115,Pre,3,10,3,sound,1.0414,1,multi-second
115,Pre,3,11,2,sound,0.50519,1,single
115,Pre,3,12,1,shape,0.55938,1,single
115,Pre,3,13,3,shape,1.5993,1,multi-second
115,Pre,3,13,3,sound,1.3573,1,multi-first
115,Pre,3,14,3,shape,1.1091,1,multi-first
115,Pre,3,14,3,sound,1.3072,1,multi-second
115,Pre,3,15,1,shape,0.7142,1,single
115,Pre,3,16,1,shape,0.65306,1,single
115,Pre,3,17,2,sound,1.3692,1,single
115,Pre,3,18,1,shape,0.6441,1,single
115,Pre,4,1,3,shape,1.4045,1,multi-first
115,Pre,4,1,3,sound,1.6645,1,multi-second
115,Pre,4,2,2,sound,1.4556,1,single
115,Pre,4,3,3,shape,0.95492,1,multi-first
115,Pre,4,3,3,sound,1.1239,1,multi-second
115,Pre,4,4,1,shape,0.58495,1,single
115,Pre,4,5,3,shape,0.72595,1,multi-first
115,Pre,4,5,3,sound,1.0259,1,multi-second
115,Pre,4,6,2,sound,0.52901,1,single
115,Pre,4,7,1,shape,0.65859,1,single
115,Pre,4,8,1,shape,0.739,1,single
115,Pre,4,9,2,sound,1.4281,1,single
115,Pre,4,10,1,shape,0.94496,1,single
115,Pre,4,11,1,shape,0.56694,1,single
115,Pre,4,12,2,sound,1.3508,1,single
115,Pre,4,13,2,sound,0.59315,1,single
115,Pre,4,14,3,shape,0.79561,1,multi-first
115,Pre,4,14,3,sound,1.0106,1,multi-second
115,Pre,4,15,3,shape,0.6599,1,multi-first
115,Pre,4,15,3,sound,0.92693,1,multi-second
115,Pre,4,16,1,shape,1.07,1,single
115,Pre,4,17,3,shape,0.93843,1,multi-first
115,Pre,4,17,3,sound,1.1874,1,multi-second
115,Pre,4,18,2,sound,1.6018,1,single
115,Pre,5,1,1,shape,0.646,1,single
115,Pre,5,2,3,shape,0.65554,1,multi-first
115,Pre,5,2,3,sound,0.88754,1,multi-second
115,Pre,5,3,2,sound,1.1165,1,single
115,Pre,5,4,1,shape,0.57106,1,single
115,Pre,5,5,2,sound,1.1398,1,single
115,Pre,5,6,2,sound,1.0727,1,single
115,Pre,5,7,3,shape,0.91099,1,multi-first
115,Pre,5,7,3,sound,1.252,1,multi-second
115,Pre,5,8,3,shape,1.0839,1,multi-first
115,Pre,5,8,3,sound,1.4639,1,multi-second
115,Pre,5,9,3,shape,0.85618,1,multi-first
115,Pre,5,9,3,sound,1.4012,1,multi-second
115,Pre,5,10,1,shape,1.0688,1,single
115,Pre,5,11,3,shape,0.79127,1,multi-first
115,Pre,5,11,3,sound,1.0133,1,multi-second
115,Pre,5,12,1,shape,0.56529,1,single
115,Pre,5,13,2,sound,0.62227,1,single
115,Pre,5,14,2,sound,1.2226,1,single
115,Pre,5,15,3,shape,0.88306,1,multi-first
115,Pre,5,15,3,sound,1.061,1,multi-second
115,Pre,5,16,2,sound,0.81518,1,single
115,Pre,5,17,1,shape,1.0905,1,single
115,Pre,5,18,1,shape,0.54041,1,single
115,Pre,6,1,2,sound,2.266,1,single
115,Pre,6,2,3,shape,0.96248,1,multi-first
115,Pre,6,2,3,sound,1.2385,1,multi-second
115,Pre,6,3,2,sound,1.6473,1,single
115,Pre,6,4,3,shape,0.66335,1,multi-first
115,Pre,6,4,3,sound,0.79835,1,multi-second
115,Pre,6,5,1,shape,0.57473,1,single
115,Pre,6,6,3,shape,1.1492,1,multi-first
115,Pre,6,6,3,sound,1.8042,1,multi-second
115,Pre,6,7,2,sound,1.8352,1,single
115,Pre,6,8,3,shape,0.6826,1,multi-first
115,Pre,6,8,3,sound,0.8786,1,multi-second
115,Pre,6,9,1,shape,0.87199,1,single
115,Pre,6,10,3,shape,0.75837,1,multi-first
115,Pre,6,10,3,sound,0.94337,1,multi-second
115,Pre,6,11,3,shape,1.33,1,multi-second
115,Pre,6,11,3,sound,1.071,1,multi-first
115,Pre,6,12,2,sound,1.2873000000000001,1,single
115,Pre,6,13,2,sound,0.69423,1,single
115,Pre,6,14,1,shape,0.63112,1,single
115,Pre,6,15,1,shape,0.70371,1,single
115,Pre,6,16,1,shape,0.54981,1,single
115,Pre,6,17,2,sound,1.1052,1,single
115,Pre,6,18,1,shape,0.70795,1,single
116,Pre,1,1,2,sound,0.47822,1,single
116,Pre,1,2,3,shape,1.0737,1,multi-first
116,Pre,1,2,3,sound,1.2377,1,multi-second
116,Pre,1,3,1,shape,0.53134,1,single
116,Pre,1,4,1,shape,0.44353,1,single
116,Pre,1,5,1,shape,0.49784,1,single
116,Pre,1,6,2,sound,0.83789,1,single
116,Pre,1,8,1,shape,0.53658,1,single
116,Pre,1,9,2,sound,0.93848,1,single
116,Pre,1,10,2,sound,0.39844,1,single
116,Pre,1,11,3,shape,1.5073,1,multi-second
116,Pre,1,11,3,sound,0.37334,1,multi-first
116,Pre,1,15,2,sound,1.1815,1,single
116,Pre,1,16,2,sound,1.0347,1,single
116,Pre,1,17,3,shape,1.8563,1,multi-first
116,Pre,1,17,3,sound,2.3693,1,multi-second
116,Pre,1,18,1,shape,0.91665,1,single
116,Pre,2,1,3,shape,1.2369,1,multi-first
116,Pre,2,1,3,sound,1.7089,1,multi-second
116,Pre,2,2,1,shape,0.66488,1,single
116,Pre,2,4,3,shape,1.3503,1,multi-first
116,Pre,2,4,3,sound,1.3703,1,multi-second
116,Pre,2,5,2,sound,1.7612,1,single
116,Pre,2,6,1,shape,0.74122,1,single
116,Pre,2,7,3,shape,1.5132,1,multi-second
116,Pre,2,7,3,sound,1.5112,1,multi-first
116,Pre,2,8,2,sound,0.89634,1,single
116,Pre,2,9,3,shape,1.3285,1,multi-second
116,Pre,2,9,3,sound,1.2772,1,multi-first
116,Pre,2,10,3,shape,1.243,1,multi-first
116,Pre,2,10,3,sound,1.256,1,multi-second
116,Pre,2,12,1,shape,0.71739,1,single
116,Pre,2,13,1,shape,0.70231,1,single
116,Pre,2,14,2,sound,0.9604,1,single
116,Pre,2,15,1,shape,0.53148,1,single
116,Pre,2,16,1,shape,0.53635,1,single
116,Pre,2,17,2,sound,0.84953,1,single
116,Pre,2,18,2,sound,0.53532,1,single
116,Pre,3,1,1,shape,0.69811,1,single
116,Pre,3,2,2,sound,0.7464,1,single
116,Pre,3,3,3,shape,1.1913,1,multi-first
116,Pre,3,3,3,sound,1.8223,1,multi-second
116,Pre,3,4,1,shape,0.68239,1,single
116,Pre,3,5,1,shape,0.65837,1,single
116,Pre,3,7,3,shape,1.2448,1,multi-second
116,Pre,3,7,3,sound,1.2408,1,multi-first
116,Pre,3,8,2,sound,0.77222,1,single
116,Pre,3,9,2,sound,0.95795,1,single
116,Pre,3,11,1,shape,0.98826,1,single
116,Pre,3,12,1,shape,0.76627,1,single
116,Pre,3,13,2,sound,0.98932,1,single
116,Pre,3,14,3,shape,1.5331,1,multi-first
116,Pre,3,14,3,sound,1.5471,1,multi-second
116,Pre,3,15,3,shape,1.1362,1,multi-first
116,Pre,3,15,3,sound,1.1462,1,multi-second
116,Pre,3,16,3,shape,1.3489,1,multi-first
116,Pre,3,16,3,sound,1.3899,1,multi-second
116,Pre,3,17,3,shape,1.311,1,multi-first
116,Pre,3,17,3,sound,1.328,1,multi-second
116,Pre,3,18,1,shape,0.60363,1,single
116,Pre,4,1,2,sound,1.0615,1,single
116,Pre,4,2,2,sound,0.65927,1,single
116,Pre,4,3,1,shape,0.68021,1,single
116,Pre,4,4,3,shape,1.0092,1,multi-first
116,Pre,4,4,3,sound,1.0192,1,multi-second
116,Pre,4,6,1,shape,0.49679,1,single
116,Pre,4,7,1,shape,0.57798,1,single
116,Pre,4,8,3,shape,1.2719,1,multi-second
116,Pre,4,8,3,sound,1.2599,1,multi-first
116,Pre,4,9,1,shape,0.55513,1,single
116,Pre,4,10,2,sound,0.68481,1,single
116,Pre,4,11,1,shape,0.52899,1,single
116,Pre,4,12,3,shape,1.3001,1,multi-first
116,Pre,4,12,3,sound,2.18,1,multi-second
116,Pre,4,13,2,sound,0.45211,1,single
116,Pre,4,14,3,shape,0.83387,1,multi-first
116,Pre,4,14,3,sound,0.84387,1,multi-second
116,Pre,4,15,2,sound,0.61011,1,single
116,Pre,4,16,3,shape,1.0868,1,multi-first
116,Pre,4,16,3,sound,1.6578,1,multi-second
116,Pre,4,17,1,shape,0.49617,1,single
116,Pre,4,18,2,sound,0.70787,1,single
116,Pre,5,1,2,sound,0.59707,1,single
116,Pre,5,2,3,shape,0.97666,1,multi-second
116,Pre,5,2,3,sound,0.96666,1,multi-first
116,Pre,5,3,1,shape,0.81248,1,single
116,Pre,5,4,1,shape,0.40343,1,single
116,Pre,5,5,1,shape,0.50459,1,single
116,Pre,5,6,2,sound,0.38058,1,single
116,Pre,5,7,3,shape,0.78263,1,multi-second
116,Pre,5,7,3,sound,0.78064,1,multi-first
116,Pre,5,8,1,shape,0.57679,1,single
116,Pre,5,9,2,sound,0.66879,1,single
116,Pre,5,10,2,sound,0.49255,1,single
116,Pre,5,11,3,shape,1.2774,1,multi-first
116,Pre,5,11,3,sound,1.6264,1,multi-second
116,Pre,5,12,1,shape,0.64052,1,single
116,Pre,5,13,3,shape,1.326,1,multi-first
116,Pre,5,13,3,sound,1.5649,1,multi-second
116,Pre,5,14,3,shape,1.1511,1,multi-first
116,Pre,5,14,3,sound,1.7421,1,multi-second
116,Pre,5,15,2,sound,0.60055,1,single
116,Pre,5,16,2,sound,0.6137,1,single
116,Pre,5,17,3,shape,1.2473,1,multi-second
116,Pre,5,17,3,sound,1.2453,1,multi-first
116,Pre,5,18,1,shape,0.5495,1,single
116,Pre,6,1,3,shape,1.3339,1,multi-first
116,Pre,6,1,3,sound,1.8029,1,multi-second
116,Pre,6,2,1,shape,0.48439,1,single
116,Pre,6,3,2,sound,0.8126,1,single
116,Pre,6,4,3,shape,1.1872,1,multi-first
116,Pre,6,4,3,sound,1.3402,1,multi-second
116,Pre,6,5,2,sound,0.94814,1,single
116,Pre,6,6,1,shape,0.63074,1,single
116,Pre,6,7,3,shape,1.0762,1,multi-second
116,Pre,6,7,3,sound,1.0512,1,multi-first
116,Pre,6,8,2,sound,0.78007,1,single
116,Pre,6,9,3,shape,1.4882,1,multi-first
116,Pre,6,9,3,sound,2.0262,1,multi-second
116,Pre,6,10,3,shape,0.77952,1,multi-second
116,Pre,6,10,3,sound,0.76352,1,multi-first
116,Pre,6,11,3,shape,0.958,1,multi-first
116,Pre,6,11,3,sound,0.992,1,multi-second
116,Pre,6,12,1,shape,0.60244,1,single
116,Pre,6,13,1,shape,0.78519,1,single
116,Pre,6,14,2,sound,1.1014,1,single
116,Pre,6,15,1,shape,0.84611,1,single
116,Pre,6,16,1,shape,0.67496,1,single
116,Pre,6,17,2,sound,0.69616,1,single
116,Pre,6,18,2,sound,0.47835,1,single
117,Pre,1,1,1,shape,0.71239,1,single
117,Pre,1,2,3,shape,0.40991,1,multi-first
117,Pre,1,2,3,sound,0.9629,1,multi-second
117,Pre,1,3,2,sound,0.45293,1,single
117,Pre,1,5,3,shape,0.71799,1,multi-first
117,Pre,1,5,3,sound,0.936,1,multi-second
117,Pre,1,6,2,sound,0.81511,1,single
117,Pre,1,7,3,shape,0.87242,1,multi-first
117,Pre,1,7,3,sound,1.2014,1,multi-second
117,Pre,1,8,2,sound,1.0536,1,single
117,Pre,1,9,1,shape,0.52758,1,single
117,Pre,1,10,2,sound,1.1072,1,single
117,Pre,1,11,2,sound,0.38275,1,single
117,Pre,1,14,3,shape,0.85735,1,multi-first
117,Pre,1,14,3,sound,1.0523,1,multi-second
117,Pre,1,15,1,shape,0.47965,1,single
117,Pre,1,16,1,shape,0.61526,1,single
117,Pre,1,17,2,sound,1.0377,1,single
117,Pre,1,18,1,shape,0.61769,1,single
117,Pre,2,1,2,sound,0.91842,1,single
117,Pre,2,2,3,shape,0.54552,1,multi-first
117,Pre,2,2,3,sound,0.83951,1,multi-second
117,Pre,2,3,3,shape,0.70487,1,multi-first
117,Pre,2,3,3,sound,0.89486,1,multi-second
117,Pre,2,4,3,shape,0.71065,1,multi-first
117,Pre,2,4,3,sound,1.0146,1,multi-second
117,Pre,2,5,1,shape,0.68439,1,single
117,Pre,2,6,1,shape,0.51643,1,single
117,Pre,2,7,1,shape,0.58347,1,single
117,Pre,2,8,3,shape,0.70377,1,multi-first
117,Pre,2,8,3,sound,1.0408,1,multi-second
117,Pre,2,9,1,shape,0.59228,1,single
117,Pre,2,10,2,sound,0.84012,1,single
117,Pre,2,11,2,sound,0.64922,1,single
117,Pre,2,12,2,sound,0.59326,1,single
117,Pre,2,13,1,shape,0.44834,1,single
117,Pre,2,14,2,sound,0.65244,1,single
117,Pre,2,15,2,sound,0.9484,1,single
117,Pre,2,17,3,shape,0.71037,1,multi-first
117,Pre,2,17,3,sound,1.0104,1,multi-second
117,Pre,2,18,3,shape,0.63346,1,multi-first
117,Pre,2,18,3,sound,1.1255,1,multi-second
117,Pre,3,1,2,sound,0.9881,1,single
117,Pre,3,2,2,sound,0.56681,1,single
117,Pre,3,3,1,shape,0.5912,1,single
117,Pre,3,4,2,sound,0.52094,1,single
117,Pre,3,5,2,sound,0.75925,1,single
117,Pre,3,6,2,sound,0.6454,1,single
117,Pre,3,7,3,shape,0.87546,1,multi-first
117,Pre,3,7,3,sound,1.2555,1,multi-second
117,Pre,3,8,3,shape,0.60596,1,multi-first
117,Pre,3,8,3,sound,0.87294,1,multi-second
117,Pre,3,9,1,shape,0.68443,1,single
117,Pre,3,10,1,shape,0.51236,1,single
117,Pre,3,11,1,shape,0.64419,1,single
117,Pre,3,13,2,sound,0.9388,1,single
117,Pre,3,14,3,shape,0.43331,1,multi-first
117,Pre,3,14,3,sound,0.7593,1,multi-second
117,Pre,3,15,3,shape,0.49941,1,multi-first
117,Pre,3,15,3,sound,0.7724,1,multi-second
117,Pre,3,16,3,shape,0.53504,1,multi-first
117,Pre,3,16,3,sound,0.67805,1,multi-second
117,Pre,3,17,1,shape,0.51414,1,single
117,Pre,3,18,1,shape,0.58608,1,single
117,Pre,4,1,2,sound,1.0177,1,single
117,Pre,4,2,2,sound,0.43013,1,single
117,Pre,4,3,2,sound,0.57013,1,single
117,Pre,4,4,3,shape,0.80096,1,multi-first
117,Pre,4,4,3,sound,0.98196,1,multi-second
117,Pre,4,5,3,shape,0.6812,1,multi-first
117,Pre,4,5,3,sound,0.85018,1,multi-second
117,Pre,4,7,2,sound,0.83405,1,single
117,Pre,4,8,3,shape,0.98098,1,multi-first
117,Pre,4,8,3,sound,1.194,1,multi-second
117,Pre,4,9,1,shape,0.61206,1,single
117,Pre,4,10,2,sound,0.65453,1,single
117,Pre,4,11,3,shape,0.83473,1,multi-first
117,Pre,4,11,3,sound,1.0217,1,multi-second
117,Pre,4,12,1,shape,0.47406,1,single
117,Pre,4,13,1,shape,0.59292,1,single
117,Pre,4,14,1,shape,0.75415,1,single
117,Pre,4,15,3,shape,0.61806,1,multi-first
117,Pre,4,15,3,sound,0.87306,1,multi-second
117,Pre,4,16,1,shape,0.79109,1,single
117,Pre,4,17,1,shape,0.73501,1,single
117,Pre,4,18,2,sound,0.66802,1,single
117,Pre,5,1,1,shape,0.53512,1,single
117,Pre,5,2,3,shape,0.6614,1,multi-first
117,Pre,5,2,3,sound,1.1024,1,multi-second
117,Pre,5,3,2,sound,0.71559,1,single
117,Pre,5,4,3,shape,0.46144,1,multi-first
117,Pre,5,4,3,sound,0.87644,1,multi-second
117,Pre,5,5,3,shape,0.75416,1,multi-first
117,Pre,5,5,3,sound,1.0621,1,multi-second
117,Pre,5,6,2,sound,0.60055,1,single
117,Pre,5,8,2,sound,0.63832,1,single
117,Pre,5,9,1,shape,0.55323,1,single
117,Pre,5,10,2,sound,0.71651,1,single
117,Pre,5,11,2,sound,0.62709,1,single
117,Pre,5,12,1,shape,0.58614,1,single
117,Pre,5,14,3,shape,1.2268,1,multi-first
117,Pre,5,14,3,sound,1.4928,1,multi-second
117,Pre,5,15,1,shape,0.62817,1,single
117,Pre,5,16,1,shape,0.68325,1,single
117,Pre,5,17,2,sound,0.59566,1,single
117,Pre,5,18,1,shape,0.64938,1,single
117,Pre,6,1,2,sound,0.56956,1,single
117,Pre,6,3,3,shape,0.86259,1,multi-first
117,Pre,6,3,3,sound,1.0816,1,multi-second
117,Pre,6,4,3,shape,0.83837,1,multi-first
117,Pre,6,4,3,sound,1.1624,1,multi-second
117,Pre,6,5,1,shape,0.5553,1,single
117,Pre,6,6,1,shape,0.56685,1,single
117,Pre,6,7,1,shape,0.60215,1,single
117,Pre,6,9,1,shape,0.73156,1,single
117,Pre,6,10,2,sound,0.57415,1,single
117,Pre,6,11,2,sound,0.65244,1,single
117,Pre,6,12,2,sound,0.68136,1,single
117,Pre,6,13,1,shape,0.68921,1,single
117,Pre,6,14,2,sound,0.61236,1,single
117,Pre,6,15,2,sound,0.76522,1,single
117,Pre,6,16,1,shape,0.66923,1,single
117,Pre,6,17,3,shape,0.61548,1,multi-first
117,Pre,6,17,3,sound,0.95747,1,multi-second
117,Pre,6,18,3,shape,0.72222,1,multi-first
117,Pre,6,18,3,sound,0.91422,1,multi-second
118,Pre,1,3,2,sound,0.7502,1,single
118,Pre,1,4,2,sound,0.93861000000000006,1,single
118,Pre,1,5,2,sound,0.84288,1,single
118,Pre,1,7,3,shape,1.3986,1,multi-second
118,Pre,1,7,3,sound,1.3796,1,multi-first
118,Pre,1,8,1,shape,0.80663,1,single
118,Pre,1,9,3,shape,0.91044,1,multi-second
118,Pre,1,9,3,sound,0.89644,1,multi-first
118,Pre,1,10,1,shape,0.97754,1,single
118,Pre,1,11,2,sound,0.60382,1,single
118,Pre,1,12,1,shape,0.92261,1,single
118,Pre,1,13,1,shape,0.7796,1,single
118,Pre,1,14,3,shape,0.88367,1,multi-second
118,Pre,1,14,3,sound,0.88068,1,multi-first
118,Pre,1,15,2,sound,0.86801,1,single
118,Pre,1,16,1,shape,0.75072,1,single
118,Pre,1,17,3,shape,0.66579,1,multi-second
118,Pre,1,17,3,sound,0.64474,1,multi-first
118,Pre,1,18,1,shape,0.74522,1,single
118,Pre,2,2,2,sound,0.58345,1,single
118,Pre,2,3,1,shape,0.74664,1,single
118,Pre,2,4,2,sound,0.84295,1,single
118,Pre,2,5,2,sound,0.4654,1,single
118,Pre,2,7,2,sound,0.85515,1,single
118,Pre,2,8,1,shape,0.85029,1,single
118,Pre,2,9,1,shape,0.79924,1,single
118,Pre,2,10,3,shape,1.1332,1,multi-second
118,Pre,2,10,3,sound,1.0732,1,multi-first
118,Pre,2,11,1,shape,0.85211,1,single
118,Pre,2,13,1,shape,0.74838,1,single
118,Pre,2,14,3,shape,0.83927,1,multi-second
118,Pre,2,14,3,sound,0.82328,1,multi-first
118,Pre,2,15,1,shape,0.71155,1,single
118,Pre,2,16,3,shape,1.2309,1,multi-second
118,Pre,2,16,3,sound,1.2229,1,multi-first
118,Pre,2,17,2,sound,0.78711,1,single
118,Pre,2,18,3,shape,1.451,1,multi-second
118,Pre,2,18,3,sound,1.419,1,multi-first
118,Pre,3,1,3,shape,1.719,1,multi-second
118,Pre,3,1,3,sound,1.707,1,multi-first
118,Pre,3,2,2,sound,0.9503,1,single
118,Pre,3,3,2,sound,0.94436,1,single
118,Pre,3,4,2,sound,0.85789,1,single
118,Pre,3,5,2,sound,0.94734,1,single
118,Pre,3,6,3,shape,1.228,1,multi-second
118,Pre,3,6,3,sound,1.203,1,multi-first
118,Pre,3,7,3,shape,1.5433,1,multi-second
118,Pre,3,7,3,sound,1.4523,1,multi-first
118,Pre,3,8,3,shape,0.76911,1,multi-second
118,Pre,3,8,3,sound,0.73811,1,multi-first
118,Pre,3,9,2,sound,0.79237,1,single
118,Pre,3,10,1,shape,0.8692,1,single
118,Pre,3,11,2,sound,1.0613,1,single
118,Pre,3,12,1,shape,0.84491,1,single
118,Pre,3,13,1,shape,0.69187,1,single
118,Pre,3,14,1,shape,0.7651,1,single
118,Pre,3,15,1,shape,0.66014,1,single
118,Pre,3,16,3,shape,1.1061,1,multi-first
118,Pre,3,16,3,sound,1.1751,1,multi-second
118,Pre,3,17,1,shape,0.82406,1,single
118,Pre,3,18,3,shape,0.93269,1,multi-second
118,Pre,3,18,3,sound,0.9297,1,multi-first
118,Pre,4,1,3,shape,1.4827,1,multi-second
118,Pre,4,1,3,sound,1.4457,1,multi-first
118,Pre,4,2,1,shape,0.72301,1,single
118,Pre,4,3,3,shape,1.6771,1,multi-second
118,Pre,4,3,3,sound,1.6451,1,multi-first
118,Pre,4,4,2,sound,1.2034,1,single
118,Pre,4,5,1,shape,0.68613,1,single
118,Pre,4,6,2,sound,0.74213,1,single
118,Pre,4,7,2,sound,0.616,1,single
118,Pre,4,8,1,shape,0.74323,1,single
118,Pre,4,9,3,shape,1.1713,1,multi-second
118,Pre,4,9,3,sound,1.1203,1,multi-first
118,Pre,4,10,1,shape,0.65608,1,single
118,Pre,4,11,3,shape,1.0858,1,multi-first
118,Pre,4,11,3,sound,1.0908,1,multi-second
118,Pre,4,12,2,sound,0.78807,1,single
118,Pre,4,13,1,shape,0.80299,1,single
118,Pre,4,14,3,shape,0.77,1,multi-first
118,Pre,4,14,3,sound,0.77199,1,multi-second
118,Pre,4,15,2,sound,0.73403,1,single
118,Pre,4,17,2,sound,0.93515,1,single
118,Pre,4,18,1,shape,0.79989,1,single
118,Pre,5,2,2,sound,0.77334,1,single
118,Pre,5,3,2,sound,0.63452,1,single
118,Pre,5,4,2,sound,0.82039,1,single
118,Pre,5,5,2,sound,0.69883,1,single
118,Pre,5,6,3,shape,1.0314,1,multi-first
118,Pre,5,6,3,sound,1.0364,1,multi-second
118,Pre,5,7,3,shape,1.1276,1,multi-second
118,Pre,5,7,3,sound,1.1096,1,multi-first
118,Pre,5,8,1,shape,0.78669,1,single
118,Pre,5,9,3,shape,0.9277,1,multi-second
118,Pre,5,9,3,sound,0.9207,1,multi-first
118,Pre,5,10,1,shape,0.91101,1,single
118,Pre,5,11,2,sound,0.75309,1,single
118,Pre,5,12,1,shape,0.95541,1,single
118,Pre,5,13,1,shape,0.78936,1,single
118,Pre,5,14,3,shape,0.85022,1,multi-second
118,Pre,5,14,3,sound,0.82722,1,multi-first
118,Pre,5,15,2,sound,0.71166,1,single
118,Pre,5,16,1,shape,0.7846,1,single
118,Pre,5,17,3,shape,0.83113,1,multi-second
118,Pre,5,17,3,sound,0.82013,1,multi-first
118,Pre,5,18,1,shape,0.68336,1,single
118,Pre,6,1,2,sound,0.91334,1,single
118,Pre,6,2,2,sound,0.71156,1,single
118,Pre,6,3,1,shape,0.69356,1,single
118,Pre,6,4,2,sound,0.65925,1,single
118,Pre,6,5,2,sound,0.87224,1,single
118,Pre,6,6,3,shape,1.5802,1,multi-second
118,Pre,6,6,3,sound,1.5602,1,multi-first
118,Pre,6,7,2,sound,0.72806,1,single
118,Pre,6,8,1,shape,0.81079,1,single
118,Pre,6,9,1,shape,0.69108,1,single
118,Pre,6,10,3,shape,1.2082,1,multi-second
118,Pre,6,10,3,sound,1.1492,1,multi-first
118,Pre,6,11,1,shape,0.69415,1,single
118,Pre,6,13,1,shape,0.51034,1,single
118,Pre,6,14,3,shape,0.95327,1,multi-first
118,Pre,6,14,3,sound,0.95726,1,multi-second
118,Pre,6,15,1,shape,0.71419,1,single
118,Pre,6,16,3,shape,1.15,1,multi-second
118,Pre,6,16,3,sound,1.133,1,multi-first
118,Pre,6,17,2,sound,0.71008,1,single
118,Pre,6,18,3,shape,1.4743,1,multi-second
118,Pre,6,18,3,sound,1.4463,1,multi-first
119,Pre,1,1,2,sound,0.78383,1,single
119,Pre,1,2,2,sound,0.62472,1,single
119,Pre,1,3,1,shape,0.49723,1,single
119,Pre,1,5,1,shape,0.62932,1,single
119,Pre,1,6,3,shape,1.1581,1,multi-first
119,Pre,1,6,3,sound,1.3931,1,multi-second
119,Pre,1,7,3,shape,0.76024,1,multi-first
119,Pre,1,7,3,sound,0.99024,1,multi-second
119,Pre,1,8,1,shape,0.68123,1,single
119,Pre,1,9,2,sound,0.91864,1,single
119,Pre,1,10,2,sound,0.80764,1,single
119,Pre,1,11,3,shape,1.132,1,multi-first
119,Pre,1,11,3,sound,1.355,1,multi-second
119,Pre,1,13,1,shape,0.73779,1,single
119,Pre,1,14,1,shape,0.58071,1,single
119,Pre,1,15,2,sound,0.91557,1,single
119,Pre,1,17,1,shape,0.58128,1,single
119,Pre,1,18,3,shape,0.94556,1,multi-first
119,Pre,1,18,3,sound,1.1236,1,multi-second
119,Pre,2,2,1,shape,0.50685,1,single
119,Pre,2,3,1,shape,0.60477,1,single
119,Pre,2,4,3,shape,0.97232,1,multi-second
119,Pre,2,4,3,sound,0.79433,1,multi-first
119,Pre,2,5,2,sound,0.84734,1,single
119,Pre,2,6,3,shape,0.77826,1,multi-first
119,Pre,2,6,3,sound,0.95026,1,multi-second
119,Pre,2,7,1,shape,0.62601,1,single
119,Pre,2,8,1,shape,0.59354,1,single
119,Pre,2,9,3,shape,0.5954,1,multi-first
119,Pre,2,9,3,sound,1.1484,1,multi-second
119,Pre,2,10,2,sound,0.87842,1,single
119,Pre,2,11,3,shape,0.79279,1,multi-first
119,Pre,2,11,3,sound,1.0508,1,multi-second
119,Pre,2,13,1,shape,0.58937,1,single
119,Pre,2,14,2,sound,0.94229,1,single
119,Pre,2,15,2,sound,0.67531,1,single
119,Pre,2,16,3,shape,0.81035,1,multi-first
119,Pre,2,16,3,sound,0.96634,1,multi-second
119,Pre,2,17,2,sound,0.87839,1,single
119,Pre,2,18,2,sound,0.49525,1,single
119,Pre,3,2,1,shape,0.5644,1,single
119,Pre,3,3,1,shape,0.64487,1,single
119,Pre,3,4,2,sound,0.76339,1,single
119,Pre,3,5,1,shape,0.71418,1,single
119,Pre,3,6,2,sound,0.771,1,single
119,Pre,3,7,3,shape,0.73737,1,multi-first
119,Pre,3,7,3,sound,1.0113,1,multi-second
119,Pre,3,8,1,shape,0.59042,1,single
119,Pre,3,9,2,sound,0.75022,1,single
119,Pre,3,10,3,shape,1.3134,1,multi-second
119,Pre,3,10,3,sound,0.98341,1,multi-first
119,Pre,3,11,2,sound,0.6584,1,single
119,Pre,3,12,1,shape,0.62043,1,single
119,Pre,3,13,3,shape,1.1954,1,multi-second
119,Pre,3,13,3,sound,1.0744,1,multi-first
119,Pre,3,14,3,shape,0.73029,1,multi-first
119,Pre,3,14,3,sound,0.85529,1,multi-second
119,Pre,3,15,3,shape,0.74338,1,multi-first
119,Pre,3,15,3,sound,0.90638,1,multi-second
119,Pre,3,16,2,sound,0.82897,1,single
119,Pre,3,17,1,shape,0.61523,1,single
119,Pre,4,1,3,shape,0.75808,1,multi-first
119,Pre,4,1,3,sound,0.91907,1,multi-second
119,Pre,4,2,2,sound,0.53513,1,single
119,Pre,4,3,1,shape,0.6413,1,single
119,Pre,4,4,3,shape,1.4262,1,multi-second
119,Pre,4,4,3,sound,1.2782,1,multi-first
119,Pre,4,5,1,shape,0.64525,1,single
119,Pre,4,6,2,sound,0.86517,1,single
119,Pre,4,7,3,shape,0.8683,1,multi-first
119,Pre,4,7,3,sound,0.96131,1,multi-second
119,Pre,4,8,1,shape,0.57909,1,single
119,Pre,4,10,2,sound,0.863,1,single
119,Pre,4,11,2,sound,0.80316,1,single
119,Pre,4,12,1,shape,0.52511,1,single
119,Pre,4,13,1,shape,0.55315,1,single
119,Pre,4,14,3,shape,0.77603,1,multi-first
119,Pre,4,14,3,sound,1.266,1,multi-second
119,Pre,4,15,2,sound,0.84305,1,single
119,Pre,4,16,2,sound,0.72911,1,single
119,Pre,4,17,1,shape,0.58608,1,single
119,Pre,4,18,3,shape,0.809,1,multi-first
119,Pre,4,18,3,sound,0.937,1,multi-second
119,Pre,5,1,2,sound,0.71303,1,single
119,Pre,5,2,2,sound,0.7844,1,single
119,Pre,5,3,1,shape,0.59263,1,single
119,Pre,5,4,3,shape,0.71412,1,multi-first
119,Pre,5,4,3,sound,1.0921,1,multi-second
119,Pre,5,5,1,shape,0.62477,1,single
119,Pre,5,6,3,shape,0.68301,1,multi-first
119,Pre,5,6,3,sound,1.345,1,multi-second
119,Pre,5,7,3,shape,0.72333,1,multi-first
119,Pre,5,7,3,sound,1.0363,1,multi-second
119,Pre,5,8,1,shape,0.53735,1,single
119,Pre,5,9,2,sound,0.88208,1,single
119,Pre,5,10,2,sound,0.75679,1,single
119,Pre,5,11,3,shape,0.83747,1,multi-first
119,Pre,5,11,3,sound,1.1575,1,multi-second
119,Pre,5,12,2,sound,0.66718,1,single
119,Pre,5,13,1,shape,0.63158,1,single
119,Pre,5,14,1,shape,0.47443,1,single
119,Pre,5,15,2,sound,0.81223,1,single
119,Pre,5,16,3,shape,1.1506,1,multi-second
119,Pre,5,16,3,sound,0.9696,1,multi-first
119,Pre,5,17,1,shape,0.56661,1,single
119,Pre,5,18,3,shape,0.51262,1,multi-first
119,Pre,5,18,3,sound,0.89661,1,multi-second
119,Pre,6,1,1,shape,0.57645,1,single
119,Pre,6,2,1,shape,0.48866,1,single
119,Pre,6,3,1,shape,0.4892,1,single
119,Pre,6,4,3,shape,0.53052,1,multi-first
119,Pre,6,4,3,sound,0.8845,1,multi-second
119,Pre,6,5,2,sound,0.83535,1,single
119,Pre,6,6,3,shape,1.2382,1,multi-second
119,Pre,6,6,3,sound,1.1242,1,multi-first
119,Pre,6,7,1,shape,0.55357,1,single
119,Pre,6,8,1,shape,0.56729,1,single
119,Pre,6,9,3,shape,0.76809,1,multi-first
119,Pre,6,9,3,sound,0.8931,1,multi-second
119,Pre,6,10,2,sound,1.0947,1,single
119,Pre,6,11,3,shape,0.84333,1,multi-first
119,Pre,6,11,3,sound,0.93833,1,multi-second
119,Pre,6,12,3,shape,0.99734,1,multi-second
119,Pre,6,12,3,sound,0.94434,1,multi-first
119,Pre,6,13,1,shape,0.54031,1,single
119,Pre,6,14,2,sound,0.66641,1,single
119,Pre,6,15,2,sound,0.62434,1,single
119,Pre,6,16,3,shape,0.58128,1,multi-first
119,Pre,6,16,3,sound,0.91328,1,multi-second
119,Pre,6,17,2,sound,0.48734,1,single
119,Pre,6,18,2,sound,0.8037,1,single
120,Pre,1,1,1,shape,0.62732,1,single
120,Pre,1,2,1,shape,0.5261,1,single
120,Pre,1,3,2,sound,1.0409,1,single
120,Pre,1,4,2,sound,0.75171,1,single
120,Pre,1,5,3,shape,1.3128,1,multi-second
120,Pre,1,5,3,sound,1.2768,1,multi-first
120,Pre,1,6,1,shape,0.64015,1,single
120,Pre,1,7,1,shape,1.0027,1,single
120,Pre,1,8,3,shape,0.99479,1,multi-first
120,Pre,1,8,3,sound,1.0668,1,multi-second
120,Pre,1,9,2,sound,1.6395,1,single
120,Pre,1,10,3,shape,1.4483,1,multi-first
120,Pre,1,10,3,sound,1.6233,1,multi-second
120,Pre,1,11,3,shape,1.0507,1,multi-first
120,Pre,1,11,3,sound,1.0637,1,multi-second
120,Pre,1,12,1,shape,1.1295,1,single
120,Pre,1,13,2,sound,1.0185,1,single
120,Pre,1,15,2,sound,1.1535,1,single
120,Pre,1,16,3,shape,1.1707,1,multi-second
120,Pre,1,16,3,sound,1.1347,1,multi-first
120,Pre,1,17,3,shape,1.2854,1,multi-second
120,Pre,1,17,3,sound,1.2564,1,multi-first
120,Pre,1,18,1,shape,0.94262,1,single
120,Pre,2,1,3,shape,1.2504,1,multi-second
120,Pre,2,1,3,sound,1.1734,1,multi-first
120,Pre,2,2,3,shape,1.1158,1,multi-first
120,Pre,2,2,3,sound,1.1418,1,multi-second
120,Pre,2,3,2,sound,1.6416,1,single
120,Pre,2,4,3,shape,0.81881,1,multi-first
120,Pre,2,4,3,sound,0.93181,1,multi-second
120,Pre,2,5,2,sound,1.0802,1,single
120,Pre,2,6,2,sound,1.5259,1,single
120,Pre,2,7,1,shape,0.88333,1,single
120,Pre,2,8,1,shape,0.6725,1,single
120,Pre,2,9,3,shape,1.5876,1,multi-second
120,Pre,2,9,3,sound,1.4646,1,multi-first
120,Pre,2,10,2,sound,0.77231,1,single
120,Pre,2,11,1,shape,0.73437,1,single
120,Pre,2,12,2,sound,0.8553,1,single
120,Pre,2,13,3,shape,1.3003,1,multi-second
120,Pre,2,13,3,sound,1.2443,1,multi-first
120,Pre,2,14,1,shape,0.76241,1,single
120,Pre,2,15,2,sound,1.0964,1,single
120,Pre,2,16,1,shape,0.75111000000000006,1,single
120,Pre,2,17,3,shape,1.1844,1,multi-second
120,Pre,2,17,3,sound,1.1574,1,multi-first
120,Pre,2,18,1,shape,0.99708,1,single
120,Pre,3,1,2,sound,0.79775,1,single
120,Pre,3,2,1,shape,1.3623,1,single
120,Pre,3,3,1,shape,0.75731,1,single
120,Pre,3,4,1,shape,0.69927,1,single
120,Pre,3,5,2,sound,0.89225,1,single
120,Pre,3,6,2,sound,0.8708,1,single
120,Pre,3,7,2,sound,1.67,1,single
120,Pre,3,8,3,shape,1.2603,1,multi-second
120,Pre,3,8,3,sound,1.2113,1,multi-first
120,Pre,3,9,3,shape,1.0704,1,multi-first
120,Pre,3,9,3,sound,1.1334,1,multi-second
120,Pre,3,10,1,shape,1.3267,1,single
120,Pre,3,11,3,shape,1.2411,1,multi-first
120,Pre,3,11,3,sound,1.2791,1,multi-second
120,Pre,3,12,3,shape,1.1743,1,multi-second
120,Pre,3,12,3,sound,1.1653,1,multi-first
120,Pre,3,13,1,shape,1.1383,1,single
120,Pre,3,14,2,sound,1.4647,1,single
120,Pre,3,15,3,shape,1.157,1,multi-first
120,Pre,3,15,3,sound,1.191,1,multi-second
120,Pre,3,16,1,shape,1.1142,1,single
120,Pre,3,17,3,shape,1.3929,1,multi-second
120,Pre,3,17,3,sound,1.3849,1,multi-first
120,Pre,3,18,2,sound,1.43,1,single
120,Pre,4,1,2,sound,0.99486,1,single
120,Pre,4,2,3,shape,1.6962,1,multi-second
120,Pre,4,2,3,sound,1.6912,1,multi-first
120,Pre,4,3,3,shape,1.377,1,multi-first
120,Pre,4,3,3,sound,1.417,1,multi-second
120,Pre,4,4,2,sound,1.6161,1,single
120,Pre,4,5,3,shape,1.1399,1,multi-second
120,Pre,4,5,3,sound,1.1009,1,multi-first
120,Pre,4,6,1,shape,0.91866,1,single
120,Pre,4,7,2,sound,1.3768,1,single
120,Pre,4,8,1,shape,1.1744,1,single
120,Pre,4,9,2,sound,1.5041,1,single
120,Pre,4,10,2,sound,0.95414,1,single
120,Pre,4,11,1,shape,0.756,1,single
120,Pre,4,12,3,shape,1.1531,1,multi-second
120,Pre,4,12,3,sound,1.0571,1,multi-first
120,Pre,4,13,2,sound,1.3708,1,single
120,Pre,4,14,3,shape,1.0999,1,multi-first
120,Pre,4,14,3,sound,1.1329,1,multi-second
120,Pre,4,15,1,shape,0.81113,1,single
120,Pre,4,16,1,shape,0.82484,1,single
120,Pre,4,17,1,shape,0.91174,1,single
120,Pre,5,1,1,shape,0.74179,1,single
120,Pre,5,2,1,shape,0.80933,1,single
120,Pre,5,3,2,sound,1.1535,1,single
120,Pre,5,4,2,sound,0.81803,1,single
120,Pre,5,5,3,shape,1.3936,1,multi-second
120,Pre,5,5,3,sound,1.1726,1,multi-first
120,Pre,5,6,1,shape,0.68546,1,single
120,Pre,5,8,3,shape,1.5377,1,multi-first
120,Pre,5,8,3,sound,1.6547,1,multi-second
120,Pre,5,9,2,sound,1.2685,1,single
120,Pre,5,11,3,shape,0.99121,1,multi-first
120,Pre,5,11,3,sound,1.0312,1,multi-second
120,Pre,5,12,1,shape,0.85763,1,single
120,Pre,5,13,2,sound,1.3067,1,single
120,Pre,5,14,2,sound,1.5115,1,single
120,Pre,5,15,2,sound,1.2936,1,single
120,Pre,5,16,3,shape,1.0384,1,multi-first
120,Pre,5,16,3,sound,1.1404,1,multi-second
120,Pre,5,17,3,shape,1.3906,1,multi-second
120,Pre,5,17,3,sound,1.3556,1,multi-first
120,Pre,6,1,3,shape,1.1745,1,multi-second
120,Pre,6,1,3,sound,1.1545,1,multi-first
120,Pre,6,2,3,shape,1.2503,1,multi-first
120,Pre,6,2,3,sound,1.2723,1,multi-second
120,Pre,6,3,2,sound,1.2876,1,single
120,Pre,6,4,3,shape,1.144,1,multi-first
120,Pre,6,4,3,sound,1.183,1,multi-second
120,Pre,6,5,2,sound,1.1563,1,single
120,Pre,6,6,2,sound,1.6343,1,single
120,Pre,6,7,1,shape,1.5399,1,single
120,Pre,6,8,1,shape,0.76433,1,single
120,Pre,6,10,2,sound,0.96067,1,single
120,Pre,6,11,1,shape,0.70939,1,single
120,Pre,6,12,2,sound,0.99642,1,single
120,Pre,6,13,3,shape,1.2758,1,multi-second
120,Pre,6,13,3,sound,1.2398,1,multi-first
120,Pre,6,14,1,shape,0.83617,1,single
120,Pre,6,15,2,sound,1.5345,1,single
120,Pre,6,16,1,shape,0.74137,1,single
120,Pre,6,18,1,shape,0.80135,1,single
121,Pre,1,1,1,shape,0.74172,1,single
121,Pre,1,2,2,sound,0.85858,1,single
121,Pre,1,3,2,sound,0.84124,1,single
121,Pre,1,5,1,shape,0.81843,1,single
121,Pre,1,7,3,shape,1.2288,1,multi-first
121,Pre,1,7,3,sound,1.7428,1,multi-second
121,Pre,1,8,3,shape,0.92447,1,multi-first
121,Pre,1,8,3,sound,1.3675,1,multi-second
121,Pre,1,9,1,shape,0.7482,1,single
121,Pre,1,10,3,shape,0.98243,1,multi-first
121,Pre,1,10,3,sound,1.4984,1,multi-second
121,Pre,1,11,1,shape,0.78765,1,single
121,Pre,1,12,1,shape,0.72647,1,single
121,Pre,1,13,2,sound,1.1459,1,single
121,Pre,1,14,2,sound,0.87821,1,single
121,Pre,1,15,2,sound,1.1508,1,single
121,Pre,1,16,3,shape,1.1178,1,multi-first
121,Pre,1,16,3,sound,1.6578,1,multi-second
121,Pre,1,17,1,shape,0.66878,1,single
121,Pre,1,18,2,sound,1.1126,1,single
121,Pre,2,1,1,shape,0.67343,1,single
121,Pre,2,2,1,shape,0.74871,1,single
121,Pre,2,3,3,shape,1.2686,1,multi-first
121,Pre,2,3,3,sound,1.7456,1,multi-second
121,Pre,2,4,3,shape,0.99532,1,multi-first
121,Pre,2,4,3,sound,1.4713,1,multi-second
121,Pre,2,5,2,sound,1.4104,1,single
121,Pre,2,6,3,shape,0.90792,1,multi-first
121,Pre,2,6,3,sound,1.4369,1,multi-second
121,Pre,2,7,2,sound,1.1704,1,single
121,Pre,2,8,3,shape,0.98651,1,multi-first
121,Pre,2,8,3,sound,1.4925,1,multi-second
121,Pre,2,9,2,sound,1.3112,1,single
121,Pre,2,10,1,shape,0.82519,1,single
121,Pre,2,11,1,shape,0.67621,1,single
121,Pre,2,12,2,sound,1.1624,1,single
121,Pre,2,14,2,sound,1.0756,1,single
121,Pre,2,15,3,shape,1.0313,1,multi-first
121,Pre,2,15,3,sound,1.3913,1,multi-second
121,Pre,2,16,2,sound,0.85839,1,single
121,Pre,2,17,1,shape,0.79233,1,single
121,Pre,2,18,3,shape,1.1128,1,multi-first
121,Pre,2,18,3,sound,1.5148,1,multi-second
121,Pre,3,1,1,shape,0.71318,1,single
121,Pre,3,2,1,shape,0.6904,1,single
121,Pre,3,3,3,shape,1.0663,1,multi-first
121,Pre,3,3,3,sound,1.5733,1,multi-second
121,Pre,3,4,1,shape,0.72607,1,single
121,Pre,3,5,3,shape,1.2074,1,multi-first
121,Pre,3,5,3,sound,1.6983,1,multi-second
121,Pre,3,6,2,sound,0.95636,1,single
121,Pre,3,7,1,shape,0.7758,1,single
121,Pre,3,8,2,sound,0.98296,1,single
121,Pre,3,9,3,shape,1.0563,1,multi-first
121,Pre,3,9,3,sound,1.3693,1,multi-second
121,Pre,3,10,3,shape,1.0004,1,multi-first
121,Pre,3,10,3,sound,1.4704,1,multi-second
121,Pre,3,11,3,shape,0.90302,1,multi-first
121,Pre,3,11,3,sound,1.317,1,multi-second
121,Pre,3,13,2,sound,0.93523,1,single
121,Pre,3,14,1,shape,0.8792,1,single
121,Pre,3,15,1,shape,0.67682,1,single
121,Pre,3,16,2,sound,1.2803,1,single
121,Pre,3,17,2,sound,0.86203,1,single
121,Pre,3,18,3,shape,1.043,1,multi-first
121,Pre,3,18,3,sound,1.335,1,multi-second
121,Pre,4,1,3,shape,0.89255,1,multi-first
121,Pre,4,1,3,sound,1.1525,1,multi-second
121,Pre,4,2,2,sound,1.2761,1,single
121,Pre,4,3,3,shape,0.86209,1,multi-first
121,Pre,4,3,3,sound,1.2921,1,multi-second
121,Pre,4,4,1,shape,0.74897,1,single
121,Pre,4,5,2,sound,1.3141,1,single
121,Pre,4,6,2,sound,0.69111,1,single
121,Pre,4,7,1,shape,0.64121,1,single
121,Pre,4,8,1,shape,0.70088,1,single
121,Pre,4,9,2,sound,1.2389,1,single
121,Pre,4,10,3,shape,0.942,1,multi-first
121,Pre,4,10,3,sound,1.287,1,multi-second
121,Pre,4,11,3,shape,0.94902,1,multi-first
121,Pre,4,11,3,sound,1.2,1,multi-second
121,Pre,4,12,2,sound,0.92702,1,single
121,Pre,4,13,3,shape,1.335,1,multi-first
121,Pre,4,13,3,sound,1.628,1,multi-second
121,Pre,4,14,2,sound,0.83561,1,single
121,Pre,4,15,3,shape,1.1041,1,multi-first
121,Pre,4,15,3,sound,1.4001,1,multi-second
121,Pre,4,16,1,shape,0.71799,1,single
121,Pre,4,17,1,shape,0.63436,1,single
121,Pre,4,18,1,shape,0.56103,1,single
121,Pre,5,1,1,shape,0.68305,1,single
121,Pre,5,2,2,sound,1.0443,1,single
121,Pre,5,3,2,sound,0.59756,1,single
121,Pre,5,4,3,shape,1.1896,1,multi-first
121,Pre,5,4,3,sound,1.5256,1,multi-second
121,Pre,5,5,1,shape,0.66321,1,single
121,Pre,5,6,3,shape,0.77108,1,multi-first
121,Pre,5,6,3,sound,1.3611,1,multi-second
121,Pre,5,7,3,shape,0.89949,1,multi-first
121,Pre,5,7,3,sound,1.2275,1,multi-second
121,Pre,5,8,3,shape,0.94918,1,multi-first
121,Pre,5,8,3,sound,1.2202,1,multi-second
121,Pre,5,9,1,shape,0.72713,1,single
121,Pre,5,10,3,shape,1.1005,1,multi-first
121,Pre,5,10,3,sound,1.6755,1,multi-second
121,Pre,5,11,1,shape,0.6603,1,single
121,Pre,5,12,1,shape,0.64063,1,single
121,Pre,5,13,2,sound,1.3373,1,single
121,Pre,5,14,2,sound,0.90139,1,single
121,Pre,5,15,2,sound,0.95854,1,single
121,Pre,5,16,3,shape,1.1206,1,multi-first
121,Pre,5,16,3,sound,1.6106,1,multi-second
121,Pre,5,17,1,shape,0.71126,1,single
121,Pre,5,18,2,sound,0.99865,1,single
121,Pre,6,1,1,shape,0.61821,1,single
121,Pre,6,2,1,shape,0.65245,1,single
121,Pre,6,3,3,shape,1.0713,1,multi-first
121,Pre,6,3,3,sound,1.3213,1,multi-second
121,Pre,6,4,3,shape,0.94811,1,multi-first
121,Pre,6,4,3,sound,1.2261,1,multi-second
121,Pre,6,5,2,sound,1.1244,1,single
121,Pre,6,6,3,shape,0.90831,1,multi-first
121,Pre,6,6,3,sound,1.2083,1,multi-second
121,Pre,6,7,2,sound,0.80983,1,single
121,Pre,6,8,3,shape,0.94725,1,multi-first
121,Pre,6,8,3,sound,1.3432,1,multi-second
121,Pre,6,9,2,sound,1.0054,1,single
121,Pre,6,10,1,shape,0.72142,1,single
121,Pre,6,11,1,shape,0.69439,1,single
121,Pre,6,12,2,sound,1.0843,1,single
121,Pre,6,13,1,shape,0.63847,1,single
121,Pre,6,14,2,sound,1.1902,1,single
121,Pre,6,15,3,shape,1.0329,1,multi-first
121,Pre,6,15,3,sound,1.2439,1,multi-second
121,Pre,6,16,2,sound,0.96033,1,single
121,Pre,6,17,1,shape,0.64851,1,single
121,Pre,6,18,3,shape,0.84613,1,multi-first
121,Pre,6,18,3,sound,1.1171,1,multi-second
122,Pre,1,1,1,shape,1.3131,1,single
122,Pre,1,2,2,sound,1.0896,1,single
122,Pre,1,4,1,shape,0.58458,1,single
122,Pre,1,5,1,shape,0.82382,1,single
122,Pre,1,7,3,shape,0.95472,1,multi-first
122,Pre,1,7,3,sound,1.5687,1,multi-second
122,Pre,1,8,1,shape,0.70359,1,single
122,Pre,1,9,1,shape,0.56649,1,single
122,Pre,1,11,2,sound,0.81549,1,single
122,Pre,1,12,3,shape,1.1707,1,multi-second
122,Pre,1,12,3,sound,1.1097,1,multi-first
122,Pre,1,15,2,sound,0.8834,1,single
122,Pre,1,16,2,sound,0.7253,1,single
122,Pre,1,18,3,shape,0.97477,1,multi-first
122,Pre,1,18,3,sound,1.6097,1,multi-second
122,Pre,2,2,2,sound,0.93896,1,single
122,Pre,2,3,1,shape,0.97065,1,single
122,Pre,2,4,2,sound,0.53221,1,single
122,Pre,2,5,3,shape,1.7293,1,multi-first
122,Pre,2,5,3,sound,1.7763,1,multi-second
122,Pre,2,6,3,shape,1.1794,1,multi-first
122,Pre,2,6,3,sound,1.2044,1,multi-second
122,Pre,2,7,2,sound,0.68344,1,single
122,Pre,2,8,2,sound,0.90574,1,single
122,Pre,2,9,1,shape,0.67626,1,single
122,Pre,2,10,1,shape,0.92734,1,single
122,Pre,2,11,2,sound,0.64328,1,single
122,Pre,2,13,3,shape,1.5503,1,multi-first
122,Pre,2,13,3,sound,1.6443,1,multi-second
122,Pre,2,14,1,shape,0.67789,1,single
122,Pre,2,15,1,shape,0.75445,1,single
122,Pre,2,16,1,shape,0.44739,1,single
122,Pre,2,17,2,sound,0.81326,1,single
122,Pre,2,18,3,shape,0.7471,1,multi-first
122,Pre,2,18,3,sound,0.8611,1,multi-second
122,Pre,3,1,2,sound,0.84752,1,single
122,Pre,3,2,1,shape,0.69445,1,single
122,Pre,3,3,2,sound,0.61615,1,single
122,Pre,3,5,1,shape,0.71139,1,single
122,Pre,3,6,3,shape,1.4163,1,multi-second
122,Pre,3,6,3,sound,1.3273,1,multi-first
122,Pre,3,7,2,sound,0.76035,1,single
122,Pre,3,8,2,sound,0.7179,1,single
122,Pre,3,9,3,shape,1.0391,1,multi-first
122,Pre,3,9,3,sound,1.0501,1,multi-second
122,Pre,3,10,3,shape,0.95812,1,multi-second
122,Pre,3,10,3,sound,0.92813,1,multi-first
122,Pre,3,11,3,shape,0.75331,1,multi-first
122,Pre,3,11,3,sound,0.80131,1,multi-second
122,Pre,3,12,1,shape,0.72797,1,single
122,Pre,3,13,1,shape,0.66243,1,single
122,Pre,3,14,1,shape,0.71709,1,single
122,Pre,3,15,2,sound,1.1411,1,single
122,Pre,3,16,1,shape,0.63313,1,single
122,Pre,3,17,3,shape,1.2429,1,multi-first
122,Pre,3,17,3,sound,1.3549,1,multi-second
122,Pre,3,18,3,shape,0.73443,1,multi-first
122,Pre,3,18,3,sound,0.74744,1,multi-second
122,Pre,4,2,3,shape,0.82926,1,multi-first
122,Pre,4,2,3,sound,0.89226,1,multi-second
122,Pre,4,3,1,shape,0.61707,1,single
122,Pre,4,4,3,shape,0.80109,1,multi-first
122,Pre,4,4,3,sound,1.3531,1,multi-second
122,Pre,4,5,3,shape,1.3029,1,multi-second
122,Pre,4,5,3,sound,1.2459,1,multi-first
122,Pre,4,6,3,shape,1.9292,1,multi-second
122,Pre,4,6,3,sound,1.8402,1,multi-first
122,Pre,4,7,1,shape,1.005,1,single
122,Pre,4,8,2,sound,0.81104,1,single
122,Pre,4,9,3,shape,1.6997,1,multi-second
122,Pre,4,9,3,sound,1.6477,1,multi-first
122,Pre,4,10,2,sound,0.96808,1,single
122,Pre,4,11,1,shape,0.51716,1,single
122,Pre,4,12,2,sound,0.83876,1,single
122,Pre,4,13,2,sound,0.66376,1,single
122,Pre,4,14,2,sound,0.61595,1,single
122,Pre,4,15,1,shape,0.8201,1,single
122,Pre,4,16,1,shape,0.64795,1,single
122,Pre,4,17,1,shape,0.57012,1,single
122,Pre,4,18,3,shape,1.656,1,multi-first
122,Pre,4,18,3,sound,1.71,1,multi-second
122,Pre,5,1,1,shape,0.84139,1,single
122,Pre,5,2,2,sound,1.1792,1,single
122,Pre,5,3,3,shape,0.71142,1,multi-first
122,Pre,5,3,3,sound,0.83242,1,multi-second
122,Pre,5,4,1,shape,0.55432,1,single
122,Pre,5,5,1,shape,0.71467,1,single
122,Pre,5,6,2,sound,0.77525,1,single
122,Pre,5,7,3,shape,0.62288,1,multi-first
122,Pre,5,7,3,sound,0.67388,1,multi-second
122,Pre,5,8,1,shape,0.54159,1,single
122,Pre,5,9,1,shape,0.69364,1,single
122,Pre,5,10,2,sound,0.86344,1,single
122,Pre,5,11,2,sound,1.0271,1,single
122,Pre,5,13,3,shape,0.86455,1,multi-first
122,Pre,5,13,3,sound,0.91255,1,multi-second
122,Pre,5,14,3,shape,1.2626,1,multi-first
122,Pre,5,14,3,sound,1.2806,1,multi-second
122,Pre,5,15,2,sound,0.94459,1,single
122,Pre,5,16,2,sound,0.68752,1,single
122,Pre,5,18,3,shape,2.0143,1,multi-first
122,Pre,5,18,3,sound,2.0763,1,multi-second
122,Pre,6,1,3,shape,1.5201,1,multi-second
122,Pre,6,1,3,sound,1.4722,1,multi-first
122,Pre,6,2,2,sound,0.94962,1,single
122,Pre,6,3,1,shape,0.58278,1,single
122,Pre,6,4,2,sound,1.1113,1,single
122,Pre,6,5,3,shape,0.96534,1,multi-first
122,Pre,6,5,3,sound,0.99436,1,multi-second
122,Pre,6,6,3,shape,1.7843,1,multi-second
122,Pre,6,6,3,sound,1.7683,1,multi-first
122,Pre,6,7,2,sound,0.69207,1,single
122,Pre,6,9,1,shape,0.81446,1,single
122,Pre,6,10,1,shape,0.76233,1,single
122,Pre,6,11,2,sound,1.4502,1,single
122,Pre,6,12,3,shape,0.64777,1,multi-first
122,Pre,6,12,3,sound,1.2838,1,multi-second
122,Pre,6,13,3,shape,1.0913,1,multi-first
122,Pre,6,13,3,sound,1.1923,1,multi-second
122,Pre,6,14,1,shape,0.78027,1,single
122,Pre,6,15,1,shape,0.71123,1,single
122,Pre,6,16,1,shape,0.54139,1,single
122,Pre,6,17,2,sound,0.66329,1,single
122,Pre,6,18,3,shape,0.93798,1,multi-first
122,Pre,6,18,3,sound,1.002,1,multi-second
123,Pre,1,1,3,shape,0.98979,1,multi-first
123,Pre,1,1,3,sound,1.1438,1,multi-second
123,Pre,1,2,3,shape,0.61919,1,multi-first
123,Pre,1,2,3,sound,0.76819,1,multi-second
123,Pre,1,3,1,shape,0.65072,1,single
123,Pre,1,5,2,sound,1.178,1,single
123,Pre,1,6,2,sound,0.83637,1,single
123,Pre,1,7,2,sound,0.745,1,single
123,Pre,1,8,3,shape,0.76946,1,multi-second
123,Pre,1,8,3,sound,0.74345,1,multi-first
123,Pre,1,10,3,shape,1.0184,1,multi-first
123,Pre,1,10,3,sound,1.2554,1,multi-second
123,Pre,1,12,1,shape,0.68335,1,single
123,Pre,1,13,2,sound,1.1279,1,single
123,Pre,1,14,1,shape,0.7499,1,single
123,Pre,1,15,3,shape,0.89763,1,multi-first
123,Pre,1,15,3,sound,1.0836,1,multi-second
123,Pre,1,16,2,sound,1.1609,1,single
123,Pre,1,17,1,shape,0.66185,1,single
123,Pre,1,18,2,sound,0.93978,1,single
123,Pre,2,1,2,sound,0.95769,1,single
123,Pre,2,2,2,sound,0.74471,1,single
123,Pre,2,3,2,sound,0.56479,1,single
123,Pre,2,4,3,shape,0.6047,1,multi-first
123,Pre,2,4,3,sound,1.0657,1,multi-second
123,Pre,2,5,3,shape,0.95355,1,multi-first
123,Pre,2,5,3,sound,1.1315,1,multi-second
123,Pre,2,6,3,shape,0.50264,1,multi-first
123,Pre,2,6,3,sound,0.73762,1,multi-second
123,Pre,2,7,1,shape,0.54664,1,single
123,Pre,2,8,1,shape,0.54162,1,single
123,Pre,2,9,1,shape,0.51856,1,single
123,Pre,2,11,1,shape,0.58934,1,single
123,Pre,2,12,2,sound,0.83563,1,single
123,Pre,2,13,1,shape,0.84841,1,single
123,Pre,2,14,3,shape,0.97749,1,multi-first
123,Pre,2,14,3,sound,1.1915,1,multi-second
123,Pre,2,15,3,shape,0.73649,1,multi-first
123,Pre,2,15,3,sound,0.87449,1,multi-second
123,Pre,2,16,2,sound,1.0956,1,single
123,Pre,2,17,2,sound,0.77821,1,single
123,Pre,2,18,1,shape,0.74656,1,single
123,Pre,3,1,1,shape,0.5592,1,single
123,Pre,3,2,1,shape,0.71443,1,single
123,Pre,3,3,3,shape,0.42848,1,multi-first
123,Pre,3,3,3,sound,0.90048,1,multi-second
123,Pre,3,4,2,sound,0.60902,1,single
123,Pre,3,5,3,shape,0.71992,1,multi-first
123,Pre,3,5,3,sound,1.3869,1,multi-second
123,Pre,3,6,2,sound,0.85057,1,single
123,Pre,3,7,2,sound,0.68131,1,single
123,Pre,3,8,2,sound,0.67677,1,single
123,Pre,3,10,3,shape,0.84756,1,multi-first
123,Pre,3,10,3,sound,0.85454,1,multi-second
123,Pre,3,11,2,sound,0.54745,1,single
123,Pre,3,12,1,shape,0.45255,1,single
123,Pre,3,13,1,shape,0.50855,1,single
123,Pre,3,14,3,shape,0.52835,1,multi-first
123,Pre,3,14,3,sound,0.81635,1,multi-second
123,Pre,3,15,1,shape,0.56237,1,single
123,Pre,3,17,1,shape,0.58837,1,single
123,Pre,3,18,3,shape,0.66425,1,multi-second
123,Pre,3,18,3,sound,0.63625,1,multi-first
123,Pre,4,1,3,shape,0.785,1,multi-first
123,Pre,4,1,3,sound,1.029,1,multi-second
123,Pre,4,2,1,shape,0.66829,1,single
123,Pre,4,3,3,shape,0.94039,1,multi-first
123,Pre,4,3,3,sound,1.4414,1,multi-second
123,Pre,4,4,3,shape,0.56005,1,multi-first
123,Pre,4,4,3,sound,0.86704,1,multi-second
123,Pre,4,5,1,shape,0.52606,1,single
123,Pre,4,6,1,shape,0.64206,1,single
123,Pre,4,7,3,shape,0.57777,1,multi-first
123,Pre,4,7,3,sound,1.2688,1,multi-second
123,Pre,4,8,2,sound,1.2331,1,single
123,Pre,4,9,2,sound,0.50407,1,single
123,Pre,4,10,1,shape,0.58816,1,single
123,Pre,4,11,1,shape,0.5504,1,single
123,Pre,4,12,3,shape,0.93521,1,multi-first
123,Pre,4,12,3,sound,1.1242,1,multi-second
123,Pre,4,13,2,sound,0.65609,1,single
123,Pre,4,14,1,shape,0.37791,1,single
123,Pre,4,15,2,sound,0.76818,1,single
123,Pre,4,16,2,sound,0.65609,1,single
123,Pre,4,17,3,shape,0.60753,1,multi-first
123,Pre,4,17,3,sound,0.80253,1,multi-second
123,Pre,4,18,2,sound,0.59596,1,single
123,Pre,5,1,3,shape,0.7397,1,multi-first
123,Pre,5,1,3,sound,0.93372,1,multi-second
123,Pre,5,2,3,shape,0.46871,1,multi-first
123,Pre,5,2,3,sound,0.68368,1,multi-second
123,Pre,5,3,1,shape,0.56344,1,single
123,Pre,5,4,1,shape,0.6161,1,single
123,Pre,5,7,2,sound,0.45491,1,single
123,Pre,5,8,3,shape,0.88833,1,multi-second
123,Pre,5,8,3,sound,0.67734,1,multi-first
123,Pre,5,9,1,shape,0.57616,1,single
123,Pre,5,10,3,shape,0.50755,1,multi-first
123,Pre,5,10,3,sound,0.88456,1,multi-second
123,Pre,5,12,1,shape,0.64718,1,single
123,Pre,5,14,1,shape,0.53192,1,single
123,Pre,5,15,3,shape,0.99919,1,multi-first
123,Pre,5,15,3,sound,1.4612,1,multi-second
123,Pre,5,16,2,sound,1.1122,1,single
123,Pre,5,17,1,shape,0.47759,1,single
123,Pre,5,18,2,sound,0.87249,1,single
123,Pre,6,1,2,sound,1.0515,1,single
123,Pre,6,2,2,sound,0.68668,1,single
123,Pre,6,3,2,sound,0.50834,1,single
123,Pre,6,4,3,shape,0.46664,1,multi-first
123,Pre,6,4,3,sound,1.0816,1,multi-second
123,Pre,6,5,3,shape,0.73327,1,multi-first
123,Pre,6,5,3,sound,0.87627,1,multi-second
123,Pre,6,7,1,shape,0.67645,1,single
123,Pre,6,8,1,shape,0.61455,1,single
123,Pre,6,9,1,shape,0.56302,1,single
123,Pre,6,10,3,shape,0.88784,1,multi-first
123,Pre,6,10,3,sound,1.2488,1,multi-second
123,Pre,6,11,1,shape,0.47755,1,single
123,Pre,6,12,2,sound,1.2487,1,single
123,Pre,6,13,1,shape,0.67132,1,single
123,Pre,6,14,3,shape,0.59173,1,multi-first
123,Pre,6,14,3,sound,1.1417,1,multi-second
123,Pre,6,15,3,shape,0.75978,1,multi-first
123,Pre,6,15,3,sound,0.82579,1,multi-second
123,Pre,6,16,2,sound,0.85851,1,single
123,Pre,6,17,2,sound,0.89052,1,single
123,Pre,6,18,1,shape,0.55056,1,single
124,Pre,1,2,3,shape,1.4596,1,multi-second
124,Pre,1,2,3,sound,1.4566,1,multi-first
124,Pre,1,3,3,shape,1.579,1,multi-second
124,Pre,1,3,3,sound,1.548,1,multi-first
124,Pre,1,4,1,shape,1.2799,1,single
124,Pre,1,5,1,shape,1.2638,1,single
124,Pre,1,6,1,shape,0.88733,1,single
124,Pre,1,7,2,sound,1.8237,1,single
124,Pre,1,8,1,shape,1.6548,1,single
124,Pre,1,9,1,shape,1.8737,1,single
124,Pre,1,10,3,shape,2.2309,1,multi-second
124,Pre,1,10,3,sound,2.1799,1,multi-first
124,Pre,1,11,2,sound,2.0979,1,single
124,Pre,1,13,1,shape,0.98999,1,single
124,Pre,1,14,2,sound,1.8682,1,single
124,Pre,1,15,3,shape,1.693,1,multi-second
124,Pre,1,15,3,sound,1.67,1,multi-first
124,Pre,1,16,2,sound,2.1837,1,single
124,Pre,1,17,2,sound,1.1485,1,single
124,Pre,1,18,2,sound,1.6319,1,single
124,Pre,2,1,2,sound,0.85953,1,single
124,Pre,2,2,1,shape,1.2167,1,single
124,Pre,2,3,3,shape,1.5795,1,multi-first
124,Pre,2,3,3,sound,1.5945,1,multi-second
124,Pre,2,4,1,shape,0.83862,1,single
124,Pre,2,5,2,sound,1.0268,1,single
124,Pre,2,6,3,shape,2.4657,1,multi-first
124,Pre,2,6,3,sound,3.1517,1,multi-second
124,Pre,2,7,3,shape,2.5566,1,multi-second
124,Pre,2,7,3,sound,2.5366,1,multi-first
124,Pre,2,8,2,sound,2.9967,1,single
124,Pre,2,9,2,sound,1.8708,1,single
124,Pre,2,10,3,shape,1.2025,1,multi-first
124,Pre,2,10,3,sound,1.2065,1,multi-second
124,Pre,2,11,2,sound,0.79624,1,single
124,Pre,2,12,1,shape,1.0767,1,single
124,Pre,2,13,1,shape,1.1268,1,single
124,Pre,2,14,3,shape,1.4538,1,multi-second
124,Pre,2,14,3,sound,1.4308,1,multi-first
124,Pre,2,15,1,shape,1.3068,1,single
124,Pre,2,16,1,shape,0.7786,1,single
124,Pre,2,17,2,sound,1.6954,1,single
124,Pre,2,18,3,shape,1.9826,1,multi-first
124,Pre,2,18,3,sound,2.0436,1,multi-second
124,Pre,3,1,2,sound,1.0505,1,single
124,Pre,3,2,1,shape,1.0046,1,single
124,Pre,3,3,3,shape,2.6855,1,multi-second
124,Pre,3,3,3,sound,2.6585,1,multi-first
124,Pre,3,4,1,shape,0.86267,1,single
124,Pre,3,5,3,shape,1.2166,1,multi-second
124,Pre,3,5,3,sound,1.2086,1,multi-first
124,Pre,3,6,2,sound,1.2795,1,single
124,Pre,3,7,2,sound,0.85962,1,single
124,Pre,3,8,2,sound,1.3532,1,single
124,Pre,3,9,2,sound,1.1286,1,single
124,Pre,3,10,1,shape,1.3105,1,single
124,Pre,3,11,3,shape,1.5006,1,multi-first
124,Pre,3,11,3,sound,1.5146,1,multi-second
124,Pre,3,12,1,shape,1.5873,1,single
124,Pre,3,13,3,shape,1.8406,1,multi-second
124,Pre,3,13,3,sound,1.8346,1,multi-first
124,Pre,3,14,3,shape,1.7886,1,multi-second
124,Pre,3,14,3,sound,1.7716,1,multi-first
124,Pre,3,15,2,sound,1.4234,1,single
124,Pre,3,16,1,shape,0.88351,1,single
124,Pre,3,17,1,shape,1.216,1,single
124,Pre,3,18,3,shape,1.265,1,multi-second
124,Pre,3,18,3,sound,1.259,1,multi-first
124,Pre,4,1,1,shape,0.96824,1,single
124,Pre,4,2,1,shape,1.0553,1,single
124,Pre,4,3,3,shape,1.7165,1,multi-second
124,Pre,4,3,3,sound,1.7115,1,multi-first
124,Pre,4,4,3,shape,1.9713,1,multi-second
124,Pre,4,4,3,sound,1.9624,1,multi-first
124,Pre,4,5,3,shape,1.9904,1,multi-second
124,Pre,4,5,3,sound,1.9624,1,multi-first
124,Pre,4,6,2,sound,1.669,1,single
124,Pre,4,7,1,shape,1.0952,1,single
124,Pre,4,8,1,shape,1.1753,1,single
124,Pre,4,9,2,sound,2.1864,1,single
124,Pre,4,10,3,shape,1.726,1,multi-second
124,Pre,4,10,3,sound,1.716,1,multi-first
124,Pre,4,11,3,shape,2.5202,1,multi-first
124,Pre,4,11,3,sound,2.5422,1,multi-second
124,Pre,4,12,1,shape,1.6334,1,single
124,Pre,4,13,2,sound,1.2735,1,single
124,Pre,4,14,1,shape,1.1813,1,single
124,Pre,4,15,3,shape,1.6962,1,multi-first
124,Pre,4,15,3,sound,1.7282,1,multi-second
124,Pre,4,16,2,sound,1.4361,1,single
124,Pre,4,17,2,sound,1.6231,1,single
124,Pre,4,18,2,sound,1.8762,1,single
124,Pre,5,1,3,shape,1.8178,1,multi-second
124,Pre,5,1,3,sound,1.8118,1,multi-first
124,Pre,5,2,2,sound,0.91128,1,single
124,Pre,5,3,3,shape,1.1337,1,multi-second
124,Pre,5,3,3,sound,1.1257,1,multi-first
124,Pre,5,4,2,sound,1.3171,1,single
124,Pre,5,6,1,shape,0.80122,1,single
124,Pre,5,7,2,sound,1.1259,1,single
124,Pre,5,8,1,shape,1.4159,1,single
124,Pre,5,9,2,sound,1.2102,1,single
124,Pre,5,11,3,shape,1.2476,1,multi-first
124,Pre,5,11,3,sound,1.2646,1,multi-second
124,Pre,5,12,1,shape,0.90663,1,single
124,Pre,5,13,1,shape,1.9167,1,single
124,Pre,5,14,3,shape,2.0278,1,multi-second
124,Pre,5,14,3,sound,2.0248,1,multi-first
124,Pre,5,15,1,shape,1.4564,1,single
124,Pre,5,16,3,shape,2.4253,1,multi-second
124,Pre,5,16,3,sound,2.4053,1,multi-first
124,Pre,5,17,2,sound,1.0794,1,single
124,Pre,5,18,3,shape,2.4145,1,multi-first
124,Pre,5,18,3,sound,2.4365,1,multi-second
124,Pre,6,1,3,shape,1.1246,1,multi-first
124,Pre,6,1,3,sound,1.1426,1,multi-second
124,Pre,6,2,2,sound,1.2205,1,single
124,Pre,6,3,2,sound,1.2316,1,single
124,Pre,6,4,1,shape,1.1164,1,single
124,Pre,6,5,2,sound,1.1036,1,single
124,Pre,6,6,1,shape,2.0844,1,single
124,Pre,6,7,3,shape,2.2015,1,multi-second
124,Pre,6,7,3,sound,2.1855,1,multi-first
124,Pre,6,8,3,shape,1.8475,1,multi-first
124,Pre,6,8,3,sound,1.8615,1,multi-second
124,Pre,6,9,2,sound,1.3824,1,single
124,Pre,6,10,3,shape,1.5643,1,multi-second
124,Pre,6,10,3,sound,1.5473,1,multi-first
124,Pre,6,11,3,shape,1.4335,1,multi-first
124,Pre,6,11,3,sound,1.4395,1,multi-second
124,Pre,6,13,1,shape,0.98127,1,single
124,Pre,6,14,2,sound,2.0694,1,single
124,Pre,6,15,1,shape,0.88657,1,single
124,Pre,6,16,1,shape,0.8385,1,single
124,Pre,6,17,3,shape,0.98047,1,multi-second
124,Pre,6,17,3,sound,0.97846,1,multi-first
124,Pre,6,18,1,shape,1.0905,1,single
125,Pre,1,1,3,shape,1.6184,1,multi-first
125,Pre,1,1,3,sound,1.8594,1,multi-second
125,Pre,1,2,3,shape,1.5189,1,multi-first
125,Pre,1,2,3,sound,1.8669,1,multi-second
125,Pre,1,3,3,shape,1.0269,1,multi-first
125,Pre,1,3,3,sound,1.3059,1,multi-second
125,Pre,1,4,2,sound,1.1822,1,single
125,Pre,1,5,1,shape,1.2078,1,single
125,Pre,1,6,2,sound,1.5974,1,single
125,Pre,1,7,3,shape,1.6137,1,multi-first
125,Pre,1,7,3,sound,1.9127,1,multi-second
125,Pre,1,8,1,shape,1.1372,1,single
125,Pre,1,9,1,shape,0.73338,1,single
125,Pre,1,10,2,sound,1.4479,1,single
125,Pre,1,11,2,sound,0.70975,1,single
125,Pre,1,12,2,sound,0.85764,1,single
125,Pre,1,13,2,sound,1.0227,1,single
125,Pre,1,14,1,shape,1.3624,1,single
125,Pre,1,15,1,shape,0.75953,1,single
125,Pre,1,16,1,shape,1.0619,1,single
125,Pre,1,17,3,shape,1.5416,1,multi-first
125,Pre,1,17,3,sound,1.8226,1,multi-second
125,Pre,1,18,3,shape,1.3006,1,multi-first
125,Pre,1,18,3,sound,1.5246,1,multi-second
125,Pre,2,1,1,shape,1.3486,1,single
125,Pre,2,2,3,shape,1.136,1,multi-first
125,Pre,2,2,3,sound,1.488,1,multi-second
125,Pre,2,3,1,shape,1.1848,1,single
125,Pre,2,4,3,shape,1.7524,1,multi-first
125,Pre,2,4,3,sound,2.1414,1,multi-second
125,Pre,2,5,1,shape,1.1534,1,single
125,Pre,2,6,3,shape,1.376,1,multi-first
125,Pre,2,6,3,sound,1.799,1,multi-second
125,Pre,2,7,1,shape,1.1103,1,single
125,Pre,2,8,1,shape,0.82145,1,single
125,Pre,2,9,2,sound,1.5491,1,single
125,Pre,2,10,2,sound,0.70305,1,single
125,Pre,2,11,1,shape,1.1071,1,single
125,Pre,2,12,3,shape,1.7424,1,multi-first
125,Pre,2,12,3,sound,2.0174,1,multi-second
125,Pre,2,13,3,shape,0.85415,1,multi-first
125,Pre,2,13,3,sound,1.2301,1,multi-second
125,Pre,2,14,3,shape,0.97647,1,multi-first
125,Pre,2,14,3,sound,1.3845,1,multi-second
125,Pre,2,15,2,sound,1.2324,1,single
125,Pre,2,16,2,sound,1.0106,1,single
125,Pre,2,17,2,sound,0.86174,1,single
125,Pre,2,18,2,sound,0.83719,1,single
125,Pre,3,1,1,shape,1.0692,1,single
125,Pre,3,2,1,shape,1.0325,1,single
125,Pre,3,3,3,shape,1.7673,1,multi-first
125,Pre,3,3,3,sound,2.1313,1,multi-second
125,Pre,3,4,1,shape,0.84325,1,single
125,Pre,3,5,2,sound,1.1959,1,single
125,Pre,3,7,3,shape,1.4723,1,multi-first
125,Pre,3,7,3,sound,1.9753,1,multi-second
125,Pre,3,8,2,sound,1.5655,1,single
125,Pre,3,9,2,sound,0.91723,1,single
125,Pre,3,10,2,sound,1.0405,1,single
125,Pre,3,11,3,shape,1.4175,1,multi-first
125,Pre,3,11,3,sound,1.9255,1,multi-second
125,Pre,3,12,1,shape,1.0294,1,single
125,Pre,3,13,1,shape,1.1396,1,single
125,Pre,3,14,2,sound,1.1563,1,single
125,Pre,3,15,1,shape,0.95837,1,single
125,Pre,3,16,3,shape,1.1144,1,multi-first
125,Pre,3,16,3,sound,1.6333,1,multi-second
125,Pre,3,17,3,shape,1.7294,1,multi-first
125,Pre,3,17,3,sound,2.0894,1,multi-second
125,Pre,3,18,2,sound,0.90617,1,single
125,Pre,4,1,2,sound,0.75301,1,single
125,Pre,4,2,2,sound,1.0381,1,single
125,Pre,4,3,2,sound,0.69647,1,single
125,Pre,4,4,3,shape,1.6762,1,multi-first
125,Pre,4,4,3,sound,2.0092,1,multi-second
125,Pre,4,5,3,shape,1.0962,1,multi-first
125,Pre,4,5,3,sound,1.3712,1,multi-second
125,Pre,4,6,2,sound,0.8153,1,single
125,Pre,4,7,2,sound,0.91626,1,single
125,Pre,4,8,1,shape,0.93602,1,single
125,Pre,4,9,1,shape,0.91321,1,single
125,Pre,4,10,3,shape,1.3243,1,multi-first
125,Pre,4,10,3,sound,1.7993,1,multi-second
125,Pre,4,11,3,shape,0.82214,1,multi-first
125,Pre,4,11,3,sound,1.2481,1,multi-second
125,Pre,4,12,1,shape,1.0452,1,single
125,Pre,4,13,1,shape,0.70694,1,single
125,Pre,4,14,1,shape,0.76322,1,single
125,Pre,4,15,2,sound,1.2228,1,single
125,Pre,4,16,3,shape,0.94729,1,multi-first
125,Pre,4,16,3,sound,1.3643,1,multi-second
125,Pre,4,17,3,shape,0.76623,1,multi-first
125,Pre,4,17,3,sound,1.2292,1,multi-second
125,Pre,4,18,1,shape,1.1304,1,single
125,Pre,5,1,3,shape,1.5581,1,multi-second
125,Pre,5,1,3,sound,1.0371,1,multi-first
125,Pre,5,2,2,sound,1.3872,1,single
125,Pre,5,3,3,shape,1.5476,1,multi-first
125,Pre,5,3,3,sound,1.9626,1,multi-second
125,Pre,5,4,2,sound,1.0675,1,single
125,Pre,5,5,2,sound,1.3204,1,single
125,Pre,5,6,3,shape,1.7769,1,multi-first
125,Pre,5,6,3,sound,2.2099,1,multi-second
125,Pre,5,7,1,shape,1.0922,1,single
125,Pre,5,8,2,sound,1.0925,1,single
125,Pre,5,9,3,shape,1.0246,1,multi-first
125,Pre,5,9,3,sound,1.4616,1,multi-second
125,Pre,5,10,2,sound,1.0673,1,single
125,Pre,5,11,3,shape,1.2577,1,multi-first
125,Pre,5,11,3,sound,1.7317,1,multi-second
125,Pre,5,12,1,shape,0.90042,1,single
125,Pre,5,13,1,shape,1.1698,1,single
125,Pre,5,14,1,shape,0.89975,1,single
125,Pre,5,15,2,sound,1.4869,1,single
125,Pre,5,16,3,shape,1.4098,1,multi-first
125,Pre,5,16,3,sound,1.9358,1,multi-second
125,Pre,5,17,1,shape,1.1682,1,single
125,Pre,5,18,1,shape,1.0386,1,single
125,Pre,6,1,3,shape,1.2165,1,multi-first
125,Pre,6,1,3,sound,2.3315,1,multi-second
125,Pre,6,2,3,shape,0.93353,1,multi-first
125,Pre,6,2,3,sound,1.3915,1,multi-second
125,Pre,6,3,1,shape,1.0278,1,single
125,Pre,6,4,1,shape,0.79553,1,single
125,Pre,6,5,2,sound,1.2033,1,single
125,Pre,6,6,3,shape,0.98808,1,multi-first
125,Pre,6,6,3,sound,1.3361,1,multi-second
125,Pre,6,7,2,sound,0.96755,1,single
125,Pre,6,8,2,sound,0.89446,1,single
125,Pre,6,9,3,shape,1.0614,1,multi-first
125,Pre,6,9,3,sound,1.6304,1,multi-second
125,Pre,6,10,1,shape,1.0204,1,single
125,Pre,6,11,3,shape,1.4423,1,multi-first
125,Pre,6,11,3,sound,2.1143,1,multi-second
125,Pre,6,12,2,sound,1.2875,1,single
125,Pre,6,13,1,shape,0.94331,1,single
125,Pre,6,14,1,shape,0.95027,1,single
125,Pre,6,15,2,sound,0.8324,1,single
125,Pre,6,16,2,sound,1.1883,1,single
125,Pre,6,17,1,shape,0.92654,1,single
125,Pre,6,18,3,shape,1.0951,1,multi-first
125,Pre,6,18,3,sound,1.4921,1,multi-second
126,Pre,1,1,2,sound,1.0887,1,single
126,Pre,1,2,2,sound,0.663,1,single
126,Pre,1,3,1,shape,2.3638,1,single
126,Pre,1,4,1,shape,0.97751999999999994,1,single
126,Pre,1,5,3,shape,0.64648,1,multi-first
126,Pre,1,5,3,sound,3.7405,1,multi-second
126,Pre,1,6,1,shape,1.8647,1,single
