sub,block,rest_block,trial_num,set_size,targ_or,resp,RT201,1,1,1,12,1,0,0201,1,1,2,12,1,0,0201,1,1,3,16,2,1,0.72747201,1,1,4,8,1,1,1.616201,1,1,5,8,1,1,1.5119201,1,1,6,16,2,2,1.4315201,1,1,7,8,1,0,0201,1,1,8,12,2,1,1.1679201,1,1,9,8,1,1,1.2486201,1,1,10,12,1,2,1.3591201,1,1,11,16,1,1,1.5194201,1,1,12,8,1,1,1.2647201,1,1,13,12,1,0,0201,1,1,14,16,2,2,1.5018201,1,1,15,16,1,0,0201,1,1,16,16,1,2,1.9914201,1,1,17,8,2,2,1.3925201,1,1,18,12,1,0,0201,1,2,1,8,1,1,1.5818201,1,2,2,12,1,1,1.3999201,1,2,3,12,1,1,1.8327201,1,2,4,8,1,2,1.2158201,1,2,5,12,2,2,1.4725201,1,2,6,16,2,1,1.1749201,1,2,7,16,1,1,1.7037201,1,2,8,12,2,2,1.5919201,1,2,9,12,2,0,0201,1,2,10,16,1,0,0201,1,2,11,12,2,2,1.3743201,1,2,12,8,2,2,0.83275201,1,2,13,8,1,1,0.88851201,1,2,14,16,1,0,0201,1,2,15,16,1,1,1.6462201,1,2,16,16,1,1,1.1199201,1,2,17,8,1,1,1.0713201,1,2,18,8,1,1,1.0011201,1,3,1,8,2,2,1.1317201,1,3,2,8,2,2,0.78441201,1,3,3,16,2,2,1.2709201,1,3,4,8,2,2,0.75245201,1,3,5,16,2,2,1.2873201,1,3,6,12,1,1,0.76015201,1,3,7,16,1,2,1.7356201,1,3,8,16,1,1,1.3358201,1,3,9,8,2,2,1.6079201,1,3,10,8,1,1,1.2079201,1,3,11,12,1,2,1.7359201,1,3,12,12,1,1,1.6721201,1,3,13,16,1,0,0201,1,3,14,8,1,1,1.3275201,1,3,15,16,1,1,0.9918201,1,3,16,12,1,1,1.408201,1,3,17,12,2,2,1.1441201,1,3,18,12,1,1,0.95255201,1,4,1,12,1,1,1.3633201,1,4,2,8,2,2,0.88869201,1,4,3,16,2,2,1.5352201,1,4,4,16,2,2,0.78438201,1,4,5,16,2,0,0201,1,4,6,12,2,2,1.3831201,1,4,7,8,2,2,0.92051201,1,4,8,16,2,2,0.67987201,1,4,9,8,2,2,1.2806201,1,4,10,12,2,2,1.3121201,1,4,11,12,1,2,1.1837201,1,4,12,12,1,1,1.168201,1,4,13,8,2,2,0.78479201,1,4,14,16,1,1,0.95149201,1,4,15,12,2,2,1.7922201,1,4,16,16,2,2,0.97621201,1,4,17,8,2,2,1.1354201,1,4,18,8,1,2,1.1842201,1,5,1,12,1,1,0.72317201,1,5,2,8,2,2,0.68806201,1,5,3,12,2,2,0.89686201,1,5,4,16,2,2,1.9278201,1,5,5,8,1,1,1.1757201,1,5,6,16,2,2,1.5114201,1,5,7,16,1,1,1.672201,1,5,8,12,2,1,1.0484201,1,5,9,12,2,2,1.2075201,1,5,10,16,2,0,0201,1,5,11,8,2,1,1.4722201,1,5,12,12,2,2,0.91261201,1,5,13,16,2,2,0.66358201,1,5,14,12,2,2,1.753201,1,5,15,16,1,1,0.83876201,1,5,16,8,2,2,1.5366201,1,5,17,8,2,2,1.096201,1,5,18,8,1,1,1.2244201,1,6,1,12,1,2,1.6515201,1,6,2,8,2,2,1.4558201,1,6,3,16,2,2,1.1287201,1,6,4,8,1,1,0.99921201,1,6,5,8,2,0,0201,1,6,6,12,1,1,1.8657201,1,6,7,8,2,2,1.1821201,1,6,8,12,1,1,1.7799201,1,6,9,16,2,2,1.2903201,1,6,10,8,1,1,1.3855201,1,6,11,16,1,1,1.9355201,1,6,12,12,2,2,0.99881201,1,6,13,16,2,2,1.1481201,1,6,14,16,1,1,1.0636201,1,6,15,8,2,2,1.1548201,1,6,16,16,2,0,0201,1,6,17,12,1,1,1.3565201,1,6,18,12,2,2,0.90475201,1,7,1,8,2,2,1.5002201,1,7,2,12,2,2,1.5882201,1,7,3,16,1,0,0201,1,7,4,16,2,2,1.2581201,1,7,5,8,1,1,0.96136201,1,7,6,16,1,1,1.2286201,1,7,7,16,2,2,0.76483201,1,7,8,12,1,1,1.0389201,1,7,9,12,2,2,0.90418201,1,7,10,16,1,1,1.2892201,1,7,11,12,2,2,1.3845201,1,7,12,8,2,2,0.93566201,1,7,13,12,1,1,1.276201,1,7,14,8,1,1,1.2234201,1,7,15,8,2,2,0.97592201,1,7,16,8,1,1,1.5371201,1,7,17,12,2,2,1.1759201,1,7,18,16,1,1,1.3198201,1,8,1,12,1,1,1.0399201,1,8,2,8,2,2,1.3436201,1,8,3,12,1,1,1.3759201,1,8,4,12,1,1,1.2638201,1,8,5,8,2,2,0.65587201,1,8,6,12,1,1,2201,1,8,7,8,2,2,0.88733201,1,8,8,16,1,1,1.0475201,1,8,9,16,2,2,1.1675201,1,8,10,16,1,1,1.1272201,1,8,11,12,2,2,0.90337201,1,8,12,8,1,1,0.84884201,1,8,13,16,2,0,0201,1,8,14,16,2,1,1.255201,1,8,15,8,1,1,1.6485201,1,8,16,12,2,2,1.2311201,1,8,17,16,1,1,1.8151201,1,8,18,8,2,2,0.66381201,1,9,1,8,2,1,0.62647201,1,9,2,16,1,1,1.2404201,1,9,3,12,1,1,1.4233201,1,9,4,12,2,2,1.2482201,1,9,5,8,1,1,1.2955201,1,9,6,12,2,2,1.2319201,1,9,7,16,2,2,1.1117201,1,9,8,8,2,1,1.0393201,1,9,9,12,1,1,1.5192201,1,9,10,16,2,2,1.6474201,1,9,11,8,1,1,0.99201201,1,9,12,8,1,1,1.1763201,1,9,13,12,2,2,1.1917201,1,9,14,16,2,1,1.199201,1,9,15,12,2,2,0.85638201,1,9,16,8,1,1,1.256201,1,9,17,16,1,2,1.1196201,1,9,18,16,2,1,1.5834201,1,10,1,8,2,2,1.668201,1,10,2,12,1,1,0.97555201,1,10,3,12,2,2,0.88728201,1,10,4,16,1,1,0.85595201,1,10,5,12,1,1,1.4793201,1,10,6,8,2,0,0201,1,10,7,8,1,1,1.1115201,1,10,8,8,2,2,0.67264201,1,10,9,8,2,2,0.78386201,1,10,10,16,2,0,0201,1,10,11,12,2,2,1.3989201,1,10,12,16,1,1,1.0155201,1,10,13,16,2,1,1.0953201,1,10,14,12,1,1,1.1605201,1,10,15,16,1,1,1.3509201,1,10,16,12,2,2,0.9202201,1,10,17,8,2,2,0.59191201,1,10,18,16,2,2,0.75105201,1,11,1,8,1,1,0.6839201,1,11,2,12,2,2,0.73558201,1,11,3,16,1,1,1.0646201,1,11,4,16,1,1,1.2546201,1,11,5,16,2,2,1.6392201,1,11,6,16,2,2,1.6304201,1,11,7,12,1,1,0.76052201,1,11,8,12,1,1,0.9275201,1,11,9,16,1,1,0.98322201,1,11,10,16,2,2,0.75115201,1,11,11,8,2,2,0.72012201,1,11,12,8,2,2,1.0882201,1,11,13,12,1,1,1.832201,1,11,14,8,1,1,1.1757201,1,11,15,12,1,1,1.0395201,1,11,16,8,1,1,0.98412201,1,11,17,8,2,2,0.91206201,1,11,18,12,1,1,1.0954201,1,12,1,16,2,0,0201,1,12,2,8,2,1,0.93933201,1,12,3,12,1,2,0.99092201,1,12,4,16,1,0,0201,1,12,5,12,2,2,1.2789201,1,12,6,8,1,2,1.4162201,1,12,7,16,2,0,0201,1,12,8,8,1,1,1.6392201,1,12,9,8,1,1,0.83293201,1,12,10,12,1,1,0.88713201,1,12,11,12,1,2,1.8405201,1,12,12,12,1,1,1.3586201,1,12,13,8,1,1,1.0321201,1,12,14,16,2,2,1.239201,1,12,15,8,2,1,1.184201,1,12,16,16,1,2,1.5352201,1,12,17,16,2,1,1.0955201,1,12,18,12,2,2,1.446201,1,13,1,16,1,1,1.5155201,1,13,2,12,1,1,0.89575201,1,13,3,8,2,2,0.6719201,1,13,4,8,2,2,1.3357201,1,13,5,16,1,1,1.848201,1,13,6,12,2,2,0.80759201,1,13,7,8,1,1,1.3997201,1,13,8,12,1,1,0.93566201,1,13,9,8,2,2,0.59212201,1,13,10,12,2,2,0.87993201,1,13,11,12,2,2,0.63196201,1,13,12,16,1,1,1.4634201,1,13,13,8,2,2,1.0003201,1,13,14,12,2,2,1.6876201,1,13,15,8,1,1,0.83246201,1,13,16,16,1,0,0201,1,13,17,16,1,2,0.99085201,1,13,18,16,2,2,1.5758201,1,14,1,12,1,1,1.0747201,1,14,2,12,2,2,0.69626201,1,14,3,8,2,2,0.7516201,1,14,4,8,1,1,1.2487201,1,14,5,16,1,2,1.5835201,1,14,6,12,2,2,1.6474201,1,14,7,8,2,2,0.67998201,1,14,8,8,1,1,1.0644201,1,14,9,8,2,2,0.71224201,1,14,10,16,1,1,0.78292201,1,14,11,12,1,1,1.3999201,1,14,12,16,2,2,1.1426201,1,14,13,12,1,1,1.48201,1,14,14,8,2,1,1.1037201,1,14,15,16,1,1,1.2791201,1,14,16,16,1,1,1.2313201,1,14,17,12,1,1,1.1681201,1,14,18,16,1,1,1.0391201,1,15,1,12,2,2,1.7717201,1,15,2,16,1,1,0.92776201,1,15,3,12,1,1,1.6636201,1,15,4,8,1,1,0.87971201,1,15,5,8,2,2,0.62491201,1,15,6,16,2,2,1.2159201,1,15,7,12,2,2,1.1274201,1,15,8,16,1,1,1.384201,1,15,9,8,2,2,0.74456201,1,15,10,12,2,2,1.2243201,1,15,11,12,2,2,1.3032201,1,15,12,8,1,1,0.89581201,1,15,13,12,2,2,1.1914201,1,15,14,16,2,1,1.16201,1,15,15,16,2,2,1.1912201,1,15,16,16,1,1,1.2074201,1,15,17,8,1,1,1.1928201,1,15,18,8,2,2,1.2076201,1,16,1,16,2,2,0.95553201,1,16,2,12,1,1,0.99119201,1,16,3,12,1,1,0.75183201,1,16,4,12,2,2,0.67169201,1,16,5,12,2,2,0.91159201,1,16,6,12,1,1,1.1277201,1,16,7,8,2,2,0.88812201,1,16,8,16,1,1,1.0558201,1,16,9,12,2,2,0.95966201,1,16,10,16,2,2,0.75986201,1,16,11,8,2,2,1.016201,1,16,12,8,2,2,0.70457201,1,16,13,8,1,1,0.73632201,1,16,14,16,2,2,0.89554201,1,16,15,8,1,2,1.2396201,1,16,16,16,2,2,1.1832201,1,16,17,16,2,2,1.0079201,1,16,18,8,1,1,1.1758201,1,17,1,8,2,2,1.1635201,1,17,2,8,2,2,0.75227201,1,17,3,8,2,2,0.80805201,1,17,4,12,1,1,0.73528201,1,17,5,16,1,1,1.8158201,1,17,6,16,2,2,1.3275201,1,17,7,12,1,1,0.9599201,1,17,8,12,1,1,1.3436201,1,17,9,12,2,2,0.74455201,1,17,10,16,2,2,1.2703201,1,17,11,16,2,2,1.0232201,1,17,12,8,1,1,1.0243201,1,17,13,8,2,2,1.3918201,1,17,14,12,2,2,1.104201,1,17,15,8,2,2,1.2319201,1,17,16,16,2,2,0.86307201,1,17,17,12,1,1,1.0724201,1,17,18,16,2,2,0.95216201,1,18,1,8,1,1,1.0431201,1,18,2,8,1,1,1.3441201,1,18,3,12,2,2,1.2798201,1,18,4,16,2,2,1.1118201,1,18,5,16,1,1,1.4637201,1,18,6,12,2,2,0.975201,1,18,7,12,1,1,1.6155201,1,18,8,16,1,1,1.1594201,1,18,9,8,2,2,1.2404201,1,18,10,12,1,1,1.4231201,1,18,11,16,2,1,1.896201,1,18,12,16,1,1,1.3362201,1,18,13,8,1,1,1.0869201,1,18,14,12,1,1,1.431201,1,18,15,12,1,1,0.98427201,1,18,16,8,2,2,0.74361201,1,18,17,8,2,2,0.99988201,1,18,18,16,1,1,0.89535201,1,19,1,16,2,2,1.1073201,1,19,2,12,2,1,1.5607201,1,19,3,12,2,2,1.0552201,1,19,4,12,2,2,0.93531201,1,19,5,12,2,1,1.6077201,1,19,6,16,2,2,0.90369201,1,19,7,8,1,1,1.8164201,1,19,8,16,2,2,1.1112201,1,19,9,12,1,1,1.2314201,1,19,10,16,2,2,1.4637201,1,19,11,8,2,2,1.1039201,1,19,12,16,2,2,0.83971201,1,19,13,8,1,1,0.93593201,1,19,14,8,1,1,0.98427201,1,19,15,8,1,1,1.0796201,1,19,16,12,1,1,1.3601201,1,19,17,16,1,1,1.1116201,1,19,18,8,1,1,1.2641201,1,20,1,16,1,1,1.6672201,1,20,2,16,1,1,0.97507201,1,20,3,8,1,1,1.2649201,1,20,4,16,2,2,0.66311201,1,20,5,8,2,2,0.72036201,1,20,6,12,2,2,1.0003201,1,20,7,12,1,1,0.90324201,1,20,8,16,2,2,1.1278201,1,20,9,8,2,2,0.70365201,1,20,10,8,1,1,0.92829201,1,20,11,12,1,1,1.2201,1,20,12,12,1,1,0.67131201,1,20,13,12,1,1,1.0077201,1,20,14,8,2,2,0.82425201,1,20,15,16,1,1,0.91113201,1,20,16,8,1,1,1.2806201,1,20,17,12,1,1,1.6798201,1,20,18,16,1,1,1.4163201,1,21,1,8,1,1,1.0924201,1,21,2,8,2,2,1.0082201,1,21,3,16,2,2,0.97534201,1,21,4,8,1,1,1.0007201,1,21,5,12,1,1,1.1514201,1,21,6,12,2,2,1.3759201,1,21,7,12,1,1,0.9755201,1,21,8,8,2,2,0.63207201,1,21,9,16,1,1,1.4876201,1,21,10,8,1,1,1.2396201,1,21,11,8,1,1,1.4086201,1,21,12,16,1,1,1.9997201,1,21,13,16,1,2,1.3439201,1,21,14,16,1,1,1.384201,1,21,15,12,1,1,1.247201,1,21,16,12,1,1,0.93533201,1,21,17,16,2,1,0.7997201,1,21,18,12,2,2,0.98351201,1,22,1,12,2,2,0.91542201,1,22,2,8,1,1,0.72034201,1,22,3,12,1,1,1.2873201,1,22,4,16,1,1,0.84724201,1,22,5,16,2,2,1.7353201,1,22,6,16,2,2,1.2236201,1,22,7,8,1,1,0.88807201,1,22,8,8,1,1,0.92007201,1,22,9,16,1,0,0201,1,22,10,16,2,2,1.4309201,1,22,11,12,2,2,0.7993201,1,22,12,12,1,1,1.7204201,1,22,13,8,2,2,1.1999201,1,22,14,8,2,2,0.71951201,1,22,15,16,2,2,1.1679201,1,22,16,12,1,1,1.0321201,1,22,17,8,2,2,0.91967201,1,22,18,12,1,1,0.77634201,1,23,1,8,2,2,0.69155201,1,23,2,8,2,2,1.0161201,1,23,3,16,1,1,1.2164201,1,23,4,16,2,2,1.1827201,1,23,5,8,2,2,1.104201,1,23,6,8,2,2,0.83177201,1,23,7,8,1,1,1.0315201,1,23,8,16,1,1,1.4713201,1,23,9,16,1,1,0.68721201,1,23,10,12,1,1,0.87181201,1,23,11,12,1,1,1.8325201,1,23,12,8,2,2,1.1509201,1,23,13,12,1,1,1.432201,1,23,14,12,2,2,0.60745201,1,23,15,12,1,1,1.2719201,1,23,16,16,1,1,1.2074201,1,23,17,12,2,2,1.1437201,1,23,18,16,2,2,0.99995201,1,24,1,16,2,2,1.3153201,1,24,2,16,1,1,0.71979201,1,24,3,16,1,1,1.1108201,1,24,4,12,1,1,0.83963201,1,24,5,8,2,2,0.83183201,1,24,6,12,1,1,1.056201,1,24,7,8,2,2,0.6875201,1,24,8,12,1,1,0.99306201,1,24,9,8,1,2,1.1835201,1,24,10,16,1,1,1.2639201,1,24,11,12,1,1,0.99902201,1,24,12,8,1,1,0.84051201,1,24,13,12,2,1,1.0394201,1,24,14,12,1,0,0201,1,24,15,8,2,2,1.7914201,1,24,16,16,2,2,0.92767201,1,24,17,8,1,1,0.77525201,1,24,18,16,1,0,0201,1,25,1,16,1,1,1.4822201,1,25,2,8,1,1,1.128201,1,25,3,12,2,2,1.2482201,1,25,4,8,2,2,1.6955201,1,25,5,8,1,1,1.7202201,1,25,6,8,1,1,0.95911201,1,25,7,12,2,2,0.77562201,1,25,8,8,1,1,1.2247201,1,25,9,12,1,0,0201,1,25,10,12,1,1,0.8794201,1,25,11,16,1,1,1.2801201,1,25,12,16,2,2,1.0237201,1,25,13,8,1,1,1.7039201,1,25,14,12,2,2,1.6159201,1,25,15,16,2,2,0.98329201,1,25,16,16,2,1,1.5276201,1,25,17,16,1,1,1.1281201,1,25,18,12,2,2,0.9028201,1,26,1,8,1,1,1.1159201,1,26,2,8,1,1,1.2399201,1,26,3,12,1,1,1.0234201,1,26,4,8,2,2,0.65642201,1,26,5,16,1,1,1.6869201,1,26,6,16,2,2,0.6476201,1,26,7,8,1,1,1.0166201,1,26,8,12,2,2,0.85487201,1,26,9,12,2,2,1.1273201,1,26,10,12,1,1,0.96811201,1,26,11,16,2,2,0.99996201,1,26,12,16,1,1,1.9915201,1,26,13,16,2,2,1.5348201,1,26,14,12,1,1,1.6392201,1,26,15,12,2,2,0.79231201,1,26,16,8,2,1,1.0566201,1,26,17,16,1,1,1.5108201,1,26,18,8,2,2,1.0323201,1,27,1,12,2,2,0.9711201,1,27,2,8,1,1,1.2165201,1,27,3,12,1,1,0.99998201,1,27,4,12,1,1,0.94444201,1,27,5,16,2,2,1.015201,1,27,6,12,1,1,0.74362201,1,27,7,8,1,1,1.2639201,1,27,8,8,1,1,0.6963201,1,27,9,16,2,2,0.66377201,1,27,10,16,1,1,1.9032201,1,27,11,8,2,2,0.84818201,1,27,12,12,2,2,1.4074201,1,27,13,16,2,2,0.71162201,1,27,14,8,2,2,1.216201,1,27,15,16,1,2,1.8878201,1,27,16,16,2,2,1.2556201,1,27,17,12,1,1,1.0953201,1,27,18,8,1,2,1.1844201,1,28,1,12,2,1,1.0511201,1,28,2,12,2,2,1.0481201,1,28,3,8,2,2,0.66371201,1,28,4,16,1,1,1.2471201,1,28,5,16,1,0,0201,1,28,6,16,1,1,1.0144201,1,28,7,8,2,2,0.9204201,1,28,8,16,2,1,1.4079201,1,28,9,16,1,1,1.3907201,1,28,10,8,2,2,1.0652201,1,28,11,12,1,1,1.5597201,1,28,12,12,2,2,0.86336201,1,28,13,8,2,2,1.1433201,1,28,14,8,1,1,1.2323201,1,28,15,12,1,1,0.97586201,1,28,16,12,1,1,0.92823201,1,28,17,16,1,1,1.2072201,1,28,18,8,2,2,1.9453201,1,29,1,8,2,2,1.1389201,1,29,2,12,2,2,0.97627201,1,29,3,8,2,2,0.69596201,1,29,4,16,2,2,0.88829201,1,29,5,12,2,2,0.90337201,1,29,6,16,2,2,0.95938201,1,29,7,16,2,2,0.96726201,1,29,8,8,1,1,0.88868201,1,29,9,12,2,2,0.93544201,1,29,10,16,2,2,1.1997201,1,29,11,12,1,1,0.86337201,1,29,12,8,1,1,1.0557201,1,29,13,12,1,1,0.73643201,1,29,14,16,2,2,1.6639201,1,29,15,12,1,1,1.0477201,1,29,16,16,1,1,1.1436201,1,29,17,8,1,1,1.0321201,1,29,18,8,2,2,1.1601201,1,30,1,16,1,1,0.94676201,1,30,2,16,2,2,1.2958201,1,30,3,12,2,2,1.2476201,1,30,4,8,2,2,0.89585201,1,30,5,12,2,2,0.85577201,1,30,6,12,1,1,1.2315201,1,30,7,8,1,1,0.73649201,1,30,8,16,1,1,1.2398201,1,30,9,8,1,1,0.81603201,1,30,10,16,2,2,0.85592201,1,30,11,16,2,2,1.1037201,1,30,12,12,1,1,1.984201,1,30,13,12,2,2,1.0085201,1,30,14,16,2,2,1.3108201,1,30,15,12,1,1,1.3833201,1,30,16,8,2,2,1.5047201,1,30,17,8,2,2,0.9035201,1,30,18,8,2,2,0.76002201,1,31,1,16,1,1,1.6273201,1,31,2,8,1,1,1.0402201,1,31,3,8,1,1,1.1845201,1,31,4,8,1,1,0.87258201,1,31,5,12,2,2,1.4239201,1,31,6,16,2,2,1.5508201,1,31,7,12,2,2,1.0087201,1,31,8,8,2,2,0.8083201,1,31,9,16,2,2,0.77536201,1,31,10,12,2,2,0.88776201,1,31,11,16,2,2,0.82361201,1,31,12,12,1,1,0.92758201,1,31,13,12,1,1,1.1116201,1,31,14,8,1,1,1.4155201,1,31,15,12,2,2,1.3116201,1,31,16,8,1,1,1.5929201,1,31,17,16,1,2,1.8706201,1,31,18,16,1,1,1.0957201,1,32,1,8,2,2,1.3879201,1,32,2,12,2,2,0.79929201,1,32,3,8,1,1,0.72008201,1,32,4,12,1,1,1.1846201,1,32,5,8,2,2,0.75969201,1,32,6,16,2,2,1.5351201,1,32,7,12,1,1,1.1686201,1,32,8,12,2,2,1.343201,1,32,9,8,2,0,0201,1,32,10,12,1,2,0.0054537201,1,32,11,8,1,1,1.7566201,1,32,12,16,2,2,1.1831201,1,32,13,16,2,2,1.8555201,1,32,14,16,1,1,1.0074201,1,32,15,8,2,2,1.7436201,1,32,16,16,1,1,1.416201,1,32,17,16,1,2,1.2158201,1,32,18,12,1,1,1.288201,2,1,1,12,1,1,1.1624201,2,1,2,12,1,1,0.95764201,2,1,3,16,2,2,1.0767201,2,1,4,8,1,1,0.89599201,2,1,5,8,1,1,1.0089201,2,1,6,16,2,2,1.1187201,2,1,7,8,1,1,0.87211201,2,1,8,12,2,2,0.79223201,2,1,9,8,1,1,1.0813201,2,1,10,12,1,1,1.5831201,2,1,11,16,1,2,1.8319201,2,1,12,8,1,1,1.4965201,2,1,13,12,1,1,1.0636201,2,1,14,16,2,2,0.91098201,2,1,15,16,1,1,0.79252201,2,1,16,16,1,1,1.2074201,2,1,17,8,2,2,0.70401201,2,1,18,12,1,1,0.87199201,2,2,1,8,1,1,1.4072201,2,2,2,12,1,1,0.86474201,2,2,3,12,1,1,1.1826201,2,2,4,8,1,1,1.3205201,2,2,5,12,2,2,0.82406201,2,2,6,16,2,2,1.5036201,2,2,7,16,1,1,0.96011201,2,2,8,12,2,2,0.99117201,2,2,9,12,2,2,0.89609201,2,2,10,16,1,1,0.9036201,2,2,11,12,2,2,1.376201,2,2,12,8,2,2,0.72013201,2,2,13,8,1,1,0.92081201,2,2,14,16,1,1,1.319201,2,2,15,16,1,1,1.1996201,2,2,16,16,1,1,0.75969201,2,2,17,8,1,1,0.76832201,2,2,18,8,1,1,0.8315201,2,3,1,8,2,2,0.98803201,2,3,2,8,2,2,0.57579201,2,3,3,16,2,2,0.6647201,2,3,4,8,2,2,0.94463201,2,3,5,16,2,2,1.0883201,2,3,6,12,1,1,1.3597201,2,3,7,16,1,1,0.78194201,2,3,8,16,1,1,0.90356201,2,3,9,8,2,2,1.192201,2,3,10,8,1,1,0.69657201,2,3,11,12,1,1,0.8558201,2,3,12,12,1,1,1.1523201,2,3,13,16,1,1,1.5988201,2,3,14,8,1,1,0.60276201,2,3,15,16,1,1,1.0281201,2,3,16,12,1,1,1.0084201,2,3,17,12,2,2,0.71873201,2,3,18,12,1,1,1.546201,2,4,1,12,1,1,1.1874201,2,4,2,8,2,2,0.94901201,2,4,3,16,2,2,0.83152201,2,4,4,16,2,2,0.8836201,2,4,5,16,2,2,0.88955201,2,4,6,12,2,2,0.66196201,2,4,7,8,2,2,0.87232201,2,4,8,16,2,2,1.1931201,2,4,9,8,2,2,0.73958201,2,4,10,12,2,2,1.6892201,2,4,11,12,1,1,1.1491201,2,4,12,12,1,1,0.90206201,2,4,13,8,2,2,0.64695201,2,4,14,16,1,1,0.95847201,2,4,15,12,2,2,1.464201,2,4,16,16,2,2,1.1521201,2,4,17,8,2,2,0.89578201,2,4,18,8,1,1,0.65632201,2,5,1,12,1,1,0.9793201,2,5,2,8,2,2,0.98942201,2,5,3,12,2,2,0.8552201,2,5,4,16,2,2,0.74486201,2,5,5,8,1,1,0.80277201,2,5,6,16,2,2,0.7184201,2,5,7,16,1,1,1.3986201,2,5,8,12,2,2,1.2357201,2,5,9,12,2,2,0.79135201,2,5,10,16,2,2,1.0482201,2,5,11,8,2,2,0.88848201,2,5,12,12,2,2,0.95452201,2,5,13,16,2,2,0.81527201,2,5,14,12,2,2,1.2564201,2,5,15,16,1,1,1.2869201,2,5,16,8,2,2,1.0321201,2,5,17,8,2,2,1.0178201,2,5,18,8,1,1,0.9052201,2,6,1,12,1,1,0.7386201,2,6,2,8,2,2,0.65644201,2,6,3,16,2,2,1.9517201,2,6,4,8,1,1,0.86482201,2,6,5,8,2,2,0.66401201,2,6,6,12,1,1,0.95927201,2,6,7,8,2,2,1.3357201,2,6,8,12,1,1,0.74443201,2,6,9,16,2,1,1.0956201,2,6,10,8,1,1,1.4878201,2,6,11,16,1,1,0.92714201,2,6,12,12,2,2,1.0238201,2,6,13,16,2,2,0.99132201,2,6,14,16,1,1,1.264201,2,6,15,8,2,2,1.1352201,2,6,16,16,2,2,0.98309201,2,6,17,12,1,2,1.3439201,2,6,18,12,2,2,1.5116201,2,7,1,8,2,2,1.0997201,2,7,2,12,2,2,1.8317201,2,7,3,16,1,1,0.95109201,2,7,4,16,2,2,0.85525201,2,7,5,8,1,1,1.4003201,2,7,6,16,1,1,0.9029201,2,7,7,16,2,2,1.4316201,2,7,8,12,1,1,1.3041201,2,7,9,12,2,2,1.9511201,2,7,10,16,1,1,1.6074201,2,7,11,12,2,2,1.2878201,2,7,12,8,2,2,1.4565201,2,7,13,12,1,1,1.3356201,2,7,14,8,1,1,1.1355201,2,7,15,8,2,2,0.63239201,2,7,16,8,1,1,1.3763201,2,7,17,12,2,2,0.93571201,2,7,18,16,1,1,0.95938201,2,8,1,12,1,1,1.1398201,2,8,2,8,2,2,0.79246201,2,8,3,12,1,1,0.76024201,2,8,4,12,1,1,0.93467201,2,8,5,8,2,2,0.73614201,2,8,6,12,1,1,1.072201,2,8,7,8,2,2,1.2403201,2,8,8,16,1,1,1.3033201,2,8,9,16,2,2,0.86194201,2,8,10,16,1,1,1.2311201,2,8,11,12,2,2,1.1839201,2,8,12,8,1,1,1.2005201,2,8,13,16,2,1,1.3984201,2,8,14,16,2,2,1.0313201,2,8,15,8,1,1,0.95227201,2,8,16,12,2,2,1.359201,2,8,17,16,1,1,0.82307201,2,8,18,8,2,2,1.1522201,2,9,1,8,2,2,0.89873201,2,9,2,16,1,1,0.63206201,2,9,3,12,1,1,0.77632201,2,9,4,12,2,2,1.0958201,2,9,5,8,1,1,1.0004201,2,9,6,12,2,2,0.73513201,2,9,7,16,2,2,0.6637201,2,9,8,8,2,2,0.93657201,2,9,9,12,1,1,1.0877201,2,9,10,16,2,2,0.77519201,2,9,11,8,1,1,0.80744201,2,9,12,8,1,1,1.1523201,2,9,13,12,2,2,0.99975201,2,9,14,16,2,2,0.65638201,2,9,15,12,2,2,0.70438201,2,9,16,8,1,1,0.9197201,2,9,17,16,1,1,1.8074201,2,9,18,16,2,2,0.66243201,2,10,1,8,2,2,0.94829201,2,10,2,12,1,1,0.80754201,2,10,3,12,2,2,1.1107201,2,10,4,16,1,1,0.75141201,2,10,5,12,1,1,0.80887201,2,10,6,8,2,2,0.57609201,2,10,7,8,1,1,0.65668201,2,10,8,8,2,2,0.88131201,2,10,9,8,2,2,1.0396201,2,10,10,16,2,2,0.94302201,2,10,11,12,2,2,1.1112201,2,10,12,16,1,1,1.1197201,2,10,13,16,2,2,1.2313201,2,10,14,12,1,1,1.1523201,2,10,15,16,1,1,0.81557201,2,10,16,12,2,2,1.1268201,2,10,17,8,2,2,0.72898201,2,10,18,16,2,2,0.86384201,2,11,1,8,1,1,1.0272201,2,11,2,12,2,2,0.92724201,2,11,3,16,1,1,0.92611201,2,11,4,16,1,1,0.74295201,2,11,5,16,2,2,0.976201,2,11,6,16,2,2,1.2638201,2,11,7,12,1,1,0.65468201,2,11,8,12,1,1,0.79146201,2,11,9,16,1,1,1.0546201,2,11,10,16,2,2,1.0386201,2,11,11,8,2,2,0.93564201,2,11,12,8,2,2,0.88093201,2,11,13,12,1,1,0.73539201,2,11,14,8,1,1,0.9132201,2,11,15,12,1,1,1.3438201,2,11,16,8,1,1,0.77551201,2,11,17,8,2,2,0.63239201,2,11,18,12,1,1,0.65672201,2,12,1,16,2,2,0.98728201,2,12,2,8,2,2,0.75952201,2,12,3,12,1,1,0.99259201,2,12,4,16,1,1,0.79895201,2,12,5,12,2,2,0.7602201,2,12,6,8,1,1,1.6319201,2,12,7,16,2,2,1.32201,2,12,8,8,1,1,1.0639201,2,12,9,8,1,1,0.79282201,2,12,10,12,1,1,1.0558201,2,12,11,12,1,1,0.9755201,2,12,12,12,1,1,1.7034201,2,12,13,8,1,2,1.1292201,2,12,14,16,2,2,0.93465201,2,12,15,8,2,2,0.69587201,2,12,16,16,1,1,0.95974201,2,12,17,16,2,2,0.88716201,2,12,18,12,2,2,1.4241201,2,13,1,16,1,1,0.86657201,2,13,2,12,1,1,0.68056201,2,13,3,8,2,2,0.77617201,2,13,4,8,2,2,0.96765201,2,13,5,16,1,1,0.72734201,2,13,6,12,2,2,0.74328201,2,13,7,8,1,1,0.84891201,2,13,8,12,1,1,0.80767201,2,13,9,8,2,2,0.68865201,2,13,10,12,2,2,1.096201,2,13,11,12,2,2,0.90343201,2,13,12,16,1,1,1.1273201,2,13,13,8,2,2,0.68826201,2,13,14,12,2,2,0.76167201,2,13,15,8,1,1,1.3927201,2,13,16,16,1,1,1.4384201,2,13,17,16,1,1,0.89546201,2,13,18,16,2,1,1.0553201,2,14,1,12,1,1,1.3883201,2,14,2,12,2,2,0.95898201,2,14,3,8,2,1,1.296201,2,14,4,8,1,1,1.0885201,2,14,5,16,1,0,0201,2,14,6,12,2,2,1.3828201,2,14,7,8,2,2,1.0874201,2,14,8,8,1,1,1.0163201,2,14,9,8,2,2,0.82481201,2,14,10,16,1,1,1.4079201,2,14,11,12,1,1,0.92707201,2,14,12,16,2,2,0.94311201,2,14,13,12,1,1,0.79992201,2,14,14,8,2,2,0.70409201,2,14,15,16,1,0,0201,2,14,16,16,1,1,1.359201,2,14,17,12,1,1,1.2401201,2,14,18,16,1,1,1.6551201,2,15,1,12,2,1,1.0998201,2,15,2,16,1,1,1.4474201,2,15,3,12,1,1,0.83121201,2,15,4,8,1,1,0.60766201,2,15,5,8,2,2,0.84098201,2,15,6,16,2,2,0.95148201,2,15,7,12,2,2,0.80832201,2,15,8,16,1,1,1.039201,2,15,9,8,2,2,0.96742201,2,15,10,12,2,2,0.87972201,2,15,11,12,2,2,0.86434201,2,15,12,8,1,1,1.0799201,2,15,13,12,2,2,1.2081201,2,15,14,16,2,2,0.90388201,2,15,15,16,2,2,0.99077201,2,15,16,16,1,1,0.82316201,2,15,17,8,1,1,0.77688201,2,15,18,8,2,2,0.80771201,2,16,1,16,2,2,0.93873201,2,16,2,12,1,1,1.216201,2,16,3,12,1,1,0.89542201,2,16,4,12,2,1,0.71996201,2,16,5,12,2,2,1.0881201,2,16,6,12,1,1,0.61622201,2,16,7,8,2,2,0.6964201,2,16,8,16,1,1,0.91909201,2,16,9,12,2,2,0.66357201,2,16,10,16,2,1,0.7519201,2,16,11,8,2,2,0.77679201,2,16,12,8,2,2,1.1524201,2,16,13,8,1,1,0.59163201,2,16,14,16,2,2,0.82915201,2,16,15,8,1,1,1.0771201,2,16,16,16,2,2,1.3276201,2,16,17,16,2,2,0.88737201,2,16,18,8,1,1,0.76815201,2,17,1,8,2,2,0.70802201,2,17,2,8,2,2,0.85496201,2,17,3,8,2,2,0.52082201,2,17,4,12,1,1,0.57709201,2,17,5,16,1,1,0.82347201,2,17,6,16,2,2,0.91964201,2,17,7,12,1,1,1.2079201,2,17,8,12,1,1,0.90281201,2,17,9,12,2,2,0.63195201,2,17,10,16,2,2,0.71206201,2,17,11,16,2,2,1.2641201,2,17,12,8,1,1,0.76771201,2,17,13,8,2,2,1.2079201,2,17,14,12,2,2,0.83919201,2,17,15,8,2,2,0.8079201,2,17,16,16,2,2,1.376201,2,17,17,12,1,1,0.85564201,2,17,18,16,2,2,1.2154201,2,18,1,8,1,1,0.97956201,2,18,2,8,1,1,0.94341201,2,18,3,12,2,2,0.91254201,2,18,4,16,2,2,0.75074201,2,18,5,16,1,1,0.90508201,2,18,6,12,2,2,1.1272201,2,18,7,12,1,1,1.168201,2,18,8,16,1,1,1.063201,2,18,9,8,2,2,0.8646201,2,18,10,12,1,1,0.97485201,2,18,11,16,2,2,1.0071201,2,18,12,16,1,1,0.91905201,2,18,13,8,1,1,1.0482201,2,18,14,12,1,2,1.1367201,2,18,15,12,1,1,0.99891201,2,18,16,8,2,1,1.1359201,2,18,17,8,2,2,0.86464201,2,18,18,16,1,1,1.0946201,2,19,1,16,2,2,1.3381201,2,19,2,12,2,2,0.66359201,2,19,3,12,2,2,0.84818201,2,19,4,12,2,2,0.7683201,2,19,5,12,2,2,0.72866201,2,19,6,16,2,2,0.90363201,2,19,7,8,1,1,0.69599201,2,19,8,16,2,2,1.1035201,2,19,9,12,1,1,0.83171201,2,19,10,16,2,2,1.0399201,2,19,11,8,2,2,0.73534201,2,19,12,16,2,2,0.6482201,2,19,13,8,1,1,0.94469201,2,19,14,8,1,1,0.75302201,2,19,15,8,1,1,1.4009201,2,19,16,12,1,1,0.95172201,2,19,17,16,1,1,0.5911201,2,19,18,8,1,1,0.98514201,2,20,1,16,1,1,1.1238201,2,20,2,16,1,1,1.1346201,2,20,3,8,1,1,1.5679201,2,20,4,16,2,2,0.67142201,2,20,5,8,2,2,1.3678201,2,20,6,12,2,2,0.71933201,2,20,7,12,1,1,1.5604201,2,20,8,16,2,2,1.0796201,2,20,9,8,2,2,0.84793201,2,20,10,8,1,1,0.79186201,2,20,11,12,1,1,0.91211201,2,20,12,12,1,1,1.0876201,2,20,13,12,1,1,0.92723201,2,20,14,8,2,2,0.72774201,2,20,15,16,1,1,0.79973201,2,20,16,8,1,1,1.0079201,2,20,17,12,1,1,0.73618201,2,20,18,16,1,1,0.63883201,2,21,1,8,1,1,0.86755201,2,21,2,8,2,2,0.7447201,2,21,3,16,2,2,0.87971201,2,21,4,8,1,1,1201,2,21,5,12,1,1,1.3273201,2,21,6,12,2,2,0.92729201,2,21,7,12,1,1,1.0719201,2,21,8,8,2,2,0.83121201,2,21,9,16,1,1,1.0074201,2,21,10,8,1,1,0.73601201,2,21,11,8,1,1,0.63978201,2,21,12,16,1,1,0.96864201,2,21,13,16,1,1,0.8398201,2,21,14,16,1,1,0.67161201,2,21,15,12,1,1,0.94444201,2,21,16,12,1,1,0.88735201,2,21,17,16,2,2,1.0314201,2,21,18,12,2,2,0.70372201,2,22,1,12,2,2,0.65296201,2,22,2,8,1,1,1.1757201,2,22,3,12,1,1,0.53632201,2,22,4,16,1,1,1.1766201,2,22,5,16,2,2,0.87191201,2,22,6,16,2,0,0201,2,22,7,8,1,1,0.90293201,2,22,8,8,1,1,0.55914201,2,22,9,16,1,1,0.79219201,2,22,10,16,2,2,0.62281201,2,22,11,12,2,2,1.1759201,2,22,12,12,1,1,0.91203201,2,22,13,8,2,2,0.95543201,2,22,14,8,2,2,0.62487201,2,22,15,16,2,2,0.70324201,2,22,16,12,1,1,0.5841201,2,22,17,8,2,2,0.66466201,2,22,18,12,1,1,1.6167201,2,23,1,8,2,2,0.56375201,2,23,2,8,2,2,0.58504201,2,23,3,16,1,1,0.93651201,2,23,4,16,2,2,1.5742201,2,23,5,8,2,2,1.2565201,2,23,6,8,2,2,0.61595201,2,23,7,8,1,1,0.8009201,2,23,8,16,1,1,1.032201,2,23,9,16,1,1,0.78297201,2,23,10,12,1,1,0.57535201,2,23,11,12,1,1,0.88904201,2,23,12,8,2,2,0.93527201,2,23,13,12,1,1,1.0157201,2,23,14,12,2,2,0.65557201,2,23,15,12,1,1,0.90366201,2,23,16,16,1,1,1.5111201,2,23,17,12,2,2,0.77634201,2,23,18,16,2,2,0.59874201,2,24,1,16,2,2,1.1471201,2,24,2,16,1,1,0.9511201,2,24,3,16,1,1,1.5762201,2,24,4,12,1,1,1.384201,2,24,5,8,2,2,0.63231201,2,24,6,12,1,0,0201,2,24,7,8,2,1,1.6229201,2,24,8,12,1,1,1.3034201,2,24,9,8,1,1,0.84773201,2,24,10,16,1,1,0.66468201,2,24,11,12,1,1,1.9766201,2,24,12,8,1,2,1.351201,2,24,13,12,2,2,1.6481201,2,24,14,12,1,1,0.63197201,2,24,15,8,2,2,1.257201,2,24,16,16,2,2,0.76787201,2,24,17,8,1,2,1.2239201,2,24,18,16,1,1,0.94221201,3,1,1,12,1,1,0.96146201,3,1,2,12,1,1,0.93495201,3,1,3,16,2,2,0.80623201,3,1,4,8,1,1,0.81482201,3,1,5,8,1,1,0.71963201,3,1,6,16,2,2,0.64789201,3,1,7,8,1,1,0.91122201,3,1,8,12,2,2,0.68687201,3,1,9,8,1,1,0.98484201,3,1,10,12,1,1,1.1343201,3,1,11,16,1,1,0.91109201,3,1,12,8,1,1,0.67064201,3,1,13,12,1,1,0.64722201,3,1,14,16,2,2,0.79863201,3,1,15,16,1,1,1.6874201,3,1,16,16,1,1,1.5988201,3,1,17,8,2,2,0.82451201,3,1,18,12,1,1,0.95812201,3,2,1,8,1,1,0.71602201,3,2,2,12,1,1,1.007201,3,2,3,12,1,1,1.0318201,3,2,4,8,1,1,0.83157201,3,2,5,12,2,2,0.63913201,3,2,6,16,2,2,1.5352201,3,2,7,16,1,1,1.1109201,3,2,8,12,2,2,0.72692201,3,2,9,12,2,2,0.63956201,3,2,10,16,1,1,0.82227201,3,2,11,12,2,2,0.91128201,3,2,12,8,2,2,0.99156201,3,2,13,8,1,1,0.87219201,3,2,14,16,1,1,1.4944201,3,2,15,16,1,1,0.85488201,3,2,16,16,1,1,1.047201,3,2,17,8,1,1,0.73466201,3,2,18,8,1,1,0.92044201,3,3,1,8,2,2,1.0578201,3,3,2,8,2,2,0.71976201,3,3,3,16,2,2,1.1747201,3,3,4,8,2,2,0.70417201,3,3,5,16,2,2,1.6941201,3,3,6,12,1,1,1.0307201,3,3,7,16,1,1,0.93519201,3,3,8,16,1,1,0.83771201,3,3,9,8,2,2,1.3042201,3,3,10,8,1,1,0.82275201,3,3,11,12,1,1,1.1028201,3,3,12,12,1,1,0.92795201,3,3,13,16,1,1,1.1987201,3,3,14,8,1,1,0.94353201,3,3,15,16,1,1,0.7334201,3,3,16,12,1,1,1.6001201,3,3,17,12,2,2,1.1177201,3,3,18,12,1,1,1.0542201,3,4,1,12,1,1,0.75304201,3,4,2,8,2,2,0.7275201,3,4,3,16,2,2,1.0156201,3,4,4,16,2,2,0.51747201,3,4,5,16,2,2,1.2302201,3,4,6,12,2,1,1.624201,3,4,7,8,2,2,0.89442201,3,4,8,16,2,2,0.70182201,3,4,9,8,2,2,0.64787201,3,4,10,12,2,2,0.98238201,3,4,11,12,1,1,0.77604201,3,4,12,12,1,1,0.74234201,3,4,13,8,2,2,0.6482201,3,4,14,16,1,1,0.86996201,3,4,15,12,2,2,1.7508201,3,4,16,16,2,2,0.66184201,3,4,17,8,2,2,1.3118201,3,4,18,8,1,1,0.72822201,3,5,1,12,1,1,0.70651201,3,5,2,8,2,2,0.80722201,3,5,3,12,2,2,0.67859201,3,5,4,16,2,2,1.3022201,3,5,5,8,1,1,0.63868201,3,5,6,16,2,2,1.1517201,3,5,7,16,1,1,1.6213201,3,5,8,12,2,2,0.83918201,3,5,9,12,2,2,1.0466201,3,5,10,16,2,2,1.5482201,3,5,11,8,2,2,0.74307201,3,5,12,12,2,2,0.55119201,3,5,13,16,2,0,0201,3,5,14,12,2,2,0.70161201,3,5,15,16,1,1,0.78314201,3,5,16,8,2,2,0.86366201,3,5,17,8,2,2,0.84664201,3,5,18,8,1,1,1.2404201,3,6,1,12,1,1,0.92942201,3,6,2,8,2,2,0.55942201,3,6,3,16,2,2,0.83917201,3,6,4,8,1,1,0.74321201,3,6,5,8,2,2,0.67941201,3,6,6,12,1,1,1.1428201,3,6,7,8,2,2,0.65505201,3,6,8,12,1,1,0.83219201,3,6,9,16,2,2,1.4307201,3,6,10,8,1,1,0.77532201,3,6,11,16,1,1,0.87006201,3,6,12,12,2,2,0.76744201,3,6,13,16,2,2,0.66972201,3,6,14,16,1,1,0.85629201,3,6,15,8,2,2,0.79064201,3,6,16,16,2,2,1.1347201,3,6,17,12,1,1,0.93438201,3,6,18,12,2,2,0.71204201,3,7,1,8,2,2,1.035201,3,7,2,12,2,2,1.0705201,3,7,3,16,1,1,0.79117201,3,7,4,16,2,2,1.0299201,3,7,5,8,1,1,0.89481201,3,7,6,16,1,1,1.4144201,3,7,7,16,2,2,0.60617201,3,7,8,12,1,1,1.6141201,3,7,9,12,2,2,0.8796201,3,7,10,16,1,1,1.6234201,3,7,11,12,2,2,1.0948201,3,7,12,8,2,2,0.65421201,3,7,13,12,1,1,1.2071201,3,7,14,8,1,1,0.71105201,3,7,15,8,2,1,1.0784201,3,7,16,8,1,2,1.6554201,3,7,17,12,2,2,1.3818201,3,7,18,16,1,1,0.93362201,3,8,1,12,1,1,0.94575201,3,8,2,8,2,2,1.1017201,3,8,3,12,1,1,1.262201,3,8,4,12,1,1,0.68027201,3,8,5,8,2,2,0.65406201,3,8,6,12,1,1,0.97391201,3,8,7,8,2,2,0.97598201,3,8,8,16,1,1,0.99756201,3,8,9,16,2,2,1.6538201,3,8,10,16,1,1,0.73398201,3,8,11,12,2,2,1.0838201,3,8,12,8,1,1,0.79211201,3,8,13,16,2,2,1.3885201,3,8,14,16,2,2,1.1265201,3,8,15,8,1,1,0.70373201,3,8,16,12,2,2,0.7738201,3,8,17,16,1,1,1.5584201,3,8,18,8,2,2,0.7353201,3,9,1,8,2,2,0.60893201,3,9,2,16,1,1,0.9008201,3,9,3,12,1,2,0.72715201,3,9,4,12,2,2,1.4871201,3,9,5,8,1,1,1.1662201,3,9,6,12,2,2,0.89437201,3,9,7,16,2,2,1.0144201,3,9,8,8,2,2,0.98214201,3,9,9,12,1,1,1.1113201,3,9,10,16,2,2,1.3736201,3,9,11,8,1,1,1.0479201,3,9,12,8,1,1,1.0226201,3,9,13,12,2,2,0.91927201,3,9,14,16,2,2,0.92407201,3,9,15,12,2,2,0.68564201,3,9,16,8,1,2,0.79146201,3,9,17,16,1,1,0.93448201,3,9,18,16,2,2,0.9891201,3,10,1,8,2,2,1.233201,3,10,2,12,1,1,0.82253201,3,10,3,12,2,2,0.99748201,3,10,4,16,1,1,0.79073201,3,10,5,12,1,1,0.83823201,3,10,6,8,2,2,0.66363201,3,10,7,8,1,1,1.2462201,3,10,8,8,2,2,0.8396201,3,10,9,8,2,2,0.84044201,3,10,10,16,2,2,1.6768201,3,10,11,12,2,2,0.99209201,3,10,12,16,1,1,0.83886201,3,10,13,16,2,2,0.99025201,3,10,14,12,1,1,1.1341201,3,10,15,16,1,1,1.0472201,3,10,16,12,2,2,0.6065201,3,10,17,8,2,2,0.67155201,3,10,18,16,2,2,1.3737201,3,11,1,8,1,1,0.82537201,3,11,2,12,2,2,0.84696201,3,11,3,16,1,1,0.87008201,3,11,4,16,1,1,1.0864201,3,11,5,16,2,2,0.87063201,3,11,6,16,2,2,0.62918201,3,11,7,12,1,1,0.9757201,3,11,8,12,1,2,1.5113201,3,11,9,16,1,1,1.014201,3,11,10,16,2,2,0.64552201,3,11,11,8,2,2,0.56677201,3,11,12,8,2,2,0.83952201,3,11,13,12,1,1,1.0939201,3,11,14,8,1,2,0.91056201,3,11,15,12,1,1,0.94323201,3,11,16,8,1,1,0.79976201,3,11,17,8,2,2,1.3098201,3,11,18,12,1,1,0.85454201,3,12,1,16,2,1,0.88035201,3,12,2,8,2,2,0.81484201,3,12,3,12,1,1,0.64785201,3,12,4,16,1,1,0.92667201,3,12,5,12,2,2,0.7417201,3,12,6,8,1,1,1.2638201,3,12,7,16,2,2,1.2462201,3,12,8,8,1,1,0.76671201,3,12,9,8,1,1,0.68781201,3,12,10,12,1,1,0.8148201,3,12,11,12,1,1,0.9507201,3,12,12,12,1,1,1.086201,3,12,13,8,1,1,0.70293201,3,12,14,16,2,2,1.1745201,3,12,15,8,2,2,0.69574201,3,12,16,16,1,1,1.0774201,3,12,17,16,2,2,1.07201,3,12,18,12,2,2,1.0707201,3,13,1,16,1,1,1.1934201,3,13,2,12,1,1,0.80555201,3,13,3,8,2,2,0.66344201,3,13,4,8,2,2,0.69555201,3,13,5,16,1,1,1.3188201,3,13,6,12,2,2,0.58984201,3,13,7,8,1,1,0.93519201,3,13,8,12,1,1,0.79972201,3,13,9,8,2,2,0.59071201,3,13,10,12,2,2,0.5352201,3,13,11,12,2,2,0.51101201,3,13,12,16,1,1,1.1422201,3,13,13,8,2,2,0.63103201,3,13,14,12,2,2,0.92618201,3,13,15,8,1,1,0.64789201,3,13,16,16,1,1,1.7495201,3,13,17,16,1,1,1.2948201,3,13,18,16,2,2,0.93451201,3,14,1,12,1,1,1.2012201,3,14,2,12,2,2,0.88648201,3,14,3,8,2,2,0.64728201,3,14,4,8,1,1,0.82409201,3,14,5,16,1,1,1.4306201,3,14,6,12,2,2,0.85481201,3,14,7,8,2,2,0.56679201,3,14,8,8,1,1,1.0564201,3,14,9,8,2,2,0.82217201,3,14,10,16,1,1,0.58224201,3,14,11,12,1,1,1.2068201,3,14,12,16,2,2,1.3982201,3,14,13,12,1,1,0.66244201,3,14,14,8,2,1,1.0703201,3,14,15,16,1,1,1.2389201,3,14,16,16,1,1,0.93416201,3,14,17,12,1,1,0.99031201,3,14,18,16,1,1,0.8795201,3,15,1,12,2,2,0.88879201,3,15,2,16,1,1,1.2221201,3,15,3,12,1,1,1.1831201,3,15,4,8,1,1,0.95948201,3,15,5,8,2,2,0.66982201,3,15,6,16,2,2,0.55869201,3,15,7,12,2,2,0.8867201,3,15,8,16,1,1,1.5657201,3,15,9,8,2,2,0.73547201,3,15,10,12,2,2,0.74238201,3,15,11,12,2,2,0.70278201,3,15,12,8,1,1,0.94305201,3,15,13,12,2,2,0.90985201,3,15,14,16,2,2,1.7354201,3,15,15,16,2,2,0.85413201,3,15,16,16,1,1,0.6624201,3,15,17,8,1,1,0.94249201,3,15,18,8,2,2,0.98321201,3,16,1,16,2,2,1.1206201,3,16,2,12,1,1,0.9818201,3,16,3,12,1,1,0.67132201,3,16,4,12,2,2,0.60603201,3,16,5,12,2,2,0.63121201,3,16,6,12,1,1,0.726201,3,16,7,8,2,2,0.62386201,3,16,8,16,1,1,0.86222201,3,16,9,12,2,2,0.90237201,3,16,10,16,2,2,1.135201,3,16,11,8,2,2,0.83873201,3,16,12,8,2,2,0.59037201,3,16,13,8,1,1,0.60662201,3,16,14,16,2,2,0.61416201,3,16,15,8,1,1,0.66422201,3,16,16,16,2,2,1.23201,3,16,17,16,2,2,0.68596201,3,16,18,8,1,1,0.79914201,3,17,1,8,2,2,0.97738201,3,17,2,8,2,2,0.64636201,3,17,3,8,2,2,0.52761201,3,17,4,12,1,1,0.75758201,3,17,5,16,1,1,0.74325201,3,17,6,16,2,2,0.87835201,3,17,7,12,1,1,0.79755201,3,17,8,12,1,1,0.82255201,3,17,9,12,2,2,0.85557201,3,17,10,16,2,2,1.5261201,3,17,11,16,2,2,1.0539201,3,17,12,8,1,1,0.84672201,3,17,13,8,2,2,0.89615201,3,17,14,12,2,2,1.5662201,3,17,15,8,2,2,0.58225201,3,17,16,16,2,2,0.77499201,3,17,17,12,1,1,0.62102201,3,17,18,16,2,2,0.64668201,3,18,1,8,1,1,0.76207201,3,18,2,8,1,1,1.2795201,3,18,3,12,2,2,0.75839201,3,18,4,16,2,2,0.81445201,3,18,5,16,1,1,0.88661201,3,18,6,12,2,2,0.83067201,3,18,7,12,1,1,0.76757201,3,18,8,16,1,1,1.3416201,3,18,9,8,2,2,0.94254201,3,18,10,12,1,1,0.72664201,3,18,11,16,2,2,1.646201,3,18,12,16,1,1,1.3739201,3,18,13,8,1,1,0.7198201,3,18,14,12,1,1,0.90148201,3,18,15,12,1,1,0.87934201,3,18,16,8,2,2,0.63024201,3,18,17,8,2,2,1.1999201,3,18,18,16,1,1,0.71071201,3,19,1,16,2,2,0.66449201,3,19,2,12,2,2,0.86335201,3,19,3,12,2,2,0.64572201,3,19,4,12,2,2,0.63077201,3,19,5,12,2,2,0.79924201,3,19,6,16,2,2,0.7342201,3,19,7,8,1,1,1.0947201,3,19,8,16,2,2,1.0065201,3,19,9,12,1,1,1.0632201,3,19,10,16,2,2,1.3346201,3,19,11,8,2,2,0.98986201,3,19,12,16,2,2,1.2068201,3,19,13,8,1,1,0.78322201,3,19,14,8,1,1,0.77504201,3,19,15,8,1,1,0.70265201,3,19,16,12,1,1,1.5115201,3,19,17,16,1,1,0.71803201,3,19,18,8,1,1,1.4312201,3,20,1,16,1,1,0.80954201,3,20,2,16,1,1,1.0705201,3,20,3,8,1,1,1.0462201,3,20,4,16,2,2,0.72603201,3,20,5,8,2,2,0.53603201,3,20,6,12,2,2,0.72707201,3,20,7,12,1,1,0.79106201,3,20,8,16,2,2,0.86959201,3,20,9,8,2,2,0.55972201,3,20,10,8,1,1,1.2151201,3,20,11,12,1,1,0.63801201,3,20,12,12,1,1,0.5675201,3,20,13,12,1,1,0.79791201,3,20,14,8,2,2,0.9832201,3,20,15,16,1,1,0.77466201,3,20,16,8,1,1,0.84711201,3,20,17,12,1,1,0.83074201,3,20,18,16,1,1,0.82281201,3,21,1,8,1,1,0.91373201,3,21,2,8,2,1,0.7358201,3,21,3,16,2,2,0.75811201,3,21,4,8,1,1,1.8542201,3,21,5,12,1,1,0.67145201,3,21,6,12,2,2,1.0066201,3,21,7,12,1,1,0.6468201,3,21,8,8,2,2,0.75842201,3,21,9,16,1,1,0.9354201,3,21,10,8,1,1,0.63894201,3,21,11,8,1,1,0.86279201,3,21,12,16,1,1,1.4947201,3,21,13,16,1,1,0.75035201,3,21,14,16,1,1,0.98127201,3,21,15,12,1,1,0.72672201,3,21,16,12,1,1,0.55915201,3,21,17,16,2,2,0.84692201,3,21,18,12,2,2,0.5581201,3,22,1,12,2,2,0.54497201,3,22,2,8,1,1,0.60759201,3,22,3,12,1,1,0.88596201,3,22,4,16,1,1,0.75109201,3,22,5,16,2,2,1.0385201,3,22,6,16,2,2,0.96604201,3,22,7,8,1,1,0.81505201,3,22,8,8,1,1,0.91981201,3,22,9,16,1,1,1.0068201,3,22,10,16,2,2,1.0604201,3,22,11,12,2,2,0.53498201,3,22,12,12,1,1,1.1433201,3,22,13,8,2,2,0.86295201,3,22,14,8,2,2,0.79884201,3,22,15,16,2,2,1.0703201,3,22,16,12,1,1,0.99116201,3,22,17,8,2,2,0.86208201,3,22,18,12,1,1,0.67933201,3,23,1,8,2,2,0.97086201,3,23,2,8,2,2,1.0226201,3,23,3,16,1,1,1.1832201,3,23,4,16,2,2,0.86241201,3,23,5,8,2,2,0.67838201,3,23,6,8,2,2,0.72704201,3,23,7,8,1,1,0.82257201,3,23,8,16,1,1,1.2859201,3,23,9,16,1,1,0.63948201,3,23,10,12,1,1,0.51889201,3,23,11,12,1,1,0.86216201,3,23,12,8,2,2,0.92664201,3,23,13,12,1,1,1.0386201,3,23,14,12,2,2,0.5036201,3,23,15,12,1,1,1.2311201,3,23,16,16,1,0,0201,3,23,17,12,2,2,0.99665201,3,23,18,16,2,2,0.63099201,3,24,1,16,2,2,0.50434201,3,24,2,16,1,1,0.98235201,3,24,3,16,1,1,0.98899201,3,24,4,12,1,1,0.54283201,3,24,5,8,2,2,0.88645201,3,24,6,12,1,1,0.94321201,3,24,7,8,2,2,0.51852201,3,24,8,12,1,1,0.83119201,3,24,9,8,1,1,0.71056201,3,24,10,16,1,1,0.85466201,3,24,11,12,1,1,1.311201,3,24,12,8,1,1,0.71931201,3,24,13,12,2,2,0.67884201,3,24,14,12,1,1,0.79794201,3,24,15,8,2,2,0.83077201,3,24,16,16,2,2,1.271201,3,24,17,8,1,1,0.69557201,3,24,18,16,1,1,0.99777201,3,25,1,16,1,1,0.9368201,3,25,2,8,1,1,0.59903201,3,25,3,12,2,2,0.81422201,3,25,4,8,2,2,0.59122201,3,25,5,8,1,1,0.50269201,3,25,6,8,1,1,0.75067201,3,25,7,12,2,2,0.69559201,3,25,8,8,1,1,0.95119201,3,25,9,12,1,1,1.1099201,3,25,10,12,1,1,0.51104201,3,25,11,16,1,1,0.78137201,3,25,12,16,2,2,0.91053201,3,25,13,8,1,1,0.95873201,3,25,14,12,2,2,1.2874201,3,25,15,16,2,2,0.65326201,3,25,16,16,2,2,0.63822201,3,25,17,16,1,1,0.8866201,3,25,18,12,2,2,0.74249201,3,26,1,8,1,1,1.0008201,3,26,2,8,1,1,0.82334201,3,26,3,12,1,1,0.63041201,3,26,4,8,2,2,0.62392201,3,26,5,16,1,1,1.0708201,3,26,6,16,2,2,0.94213201,3,26,7,8,1,1,1.1025201,3,26,8,12,2,2,1.0954201,3,26,9,12,2,2,0.66148201,3,26,10,12,1,1,1.0714201,3,26,11,16,2,2,1.1657201,3,26,12,16,1,1,1.7513201,3,26,13,16,2,2,0.95748201,3,26,14,12,1,1,0.78243201,3,26,15,12,2,2,0.63103201,3,26,16,8,2,2,0.66257201,3,26,17,16,1,1,1.0714201,3,26,18,8,2,2,0.86225201,3,27,1,12,2,2,1.1695201,3,27,2,8,1,1,0.67196201,3,27,3,12,1,1,0.87896201,3,27,4,12,1,1,0.62277201,3,27,5,16,2,2,0.89289201,3,27,6,12,1,1,1.0482201,3,27,7,8,1,1,0.79871201,3,27,8,8,1,1,0.59199201,3,27,9,16,2,2,0.61469201,3,27,10,16,1,1,1.5501201,3,27,11,8,2,2,0.65581201,3,27,12,12,2,2,0.94982201,3,27,13,16,2,2,1.2145201,3,27,14,8,2,2,0.61474201,3,27,15,16,1,2,0.64591201,3,27,16,16,2,2,1.1029201,3,27,17,12,1,1,0.76718201,3,27,18,8,1,1,0.85475201,3,28,1,12,2,2,0.64801201,3,28,2,12,2,2,0.85491201,3,28,3,8,2,2,0.64048201,3,28,4,16,1,1,0.79734201,3,28,5,16,1,1,1.2151201,3,28,6,16,1,1,0.73335201,3,28,7,8,2,2,0.7043201,3,28,8,16,2,1,1.2386201,3,28,9,16,1,1,1.5499201,3,28,10,8,2,2,0.647201,3,28,11,12,1,1,1.6793201,3,28,12,12,2,2,0.78162201,3,28,13,8,2,2,0.63923201,3,28,14,8,1,1,0.8387201,3,28,15,12,1,1,0.75954201,3,28,16,12,1,1,0.67858201,3,28,17,16,1,1,0.73397201,3,28,18,8,2,2,0.79067201,3,29,1,8,2,2,0.85044201,3,29,2,12,2,2,0.81443201,3,29,3,8,2,2,0.61455201,3,29,4,16,2,2,1.1739201,3,29,5,12,2,1,1.2783201,3,29,6,16,2,2,1.0062201,3,29,7,16,2,2,0.68689201,3,29,8,8,1,1,0.74228201,3,29,9,12,2,2,0.55855201,3,29,10,16,2,2,0.91001201,3,29,11,12,1,1,0.75899201,3,29,12,8,1,1,0.98234201,3,29,13,12,1,1,0.72674201,3,29,14,16,2,2,0.84693201,3,29,15,12,1,1,0.87101201,3,29,16,16,1,1,0.799201,3,29,17,8,1,1,0.71139201,3,29,18,8,2,2,0.76647201,3,30,1,16,1,1,0.60013201,3,30,2,16,2,2,1.4466201,3,30,3,12,2,2,1.047201,3,30,4,8,2,2,0.69451201,3,30,5,12,2,2,0.61424201,3,30,6,12,1,1,0.75938201,3,30,7,8,1,1,0.93437201,3,30,8,16,1,1,0.89442201,3,30,9,8,1,1,0.75001201,3,30,10,16,2,2,0.71139201,3,30,11,16,2,2,0.69361201,3,30,12,12,1,1,1.4315201,3,30,13,12,2,2,0.79906201,3,30,14,16,2,2,0.80525201,3,30,15,12,1,1,0.78281201,3,30,16,8,2,2,0.7598201,3,30,17,8,2,2,0.77506201,3,30,18,8,2,2,0.67085201,3,31,1,16,1,1,1.4241201,3,31,2,8,1,1,1.0871201,3,31,3,8,1,1,0.6625201,3,31,4,8,1,1,0.63172201,3,31,5,12,2,2,1.6858201,3,31,6,16,2,2,1.1176201,3,31,7,12,2,2,0.70147201,3,31,8,8,2,2,0.95114201,3,31,9,16,2,2,0.54331201,3,31,10,12,2,2,0.58177201,3,31,11,16,2,2,0.51934201,3,31,12,12,1,1,0.82273201,3,31,13,12,1,1,1.3739201,3,31,14,8,1,1,0.6562201,3,31,15,12,2,2,0.79854201,3,31,16,8,1,1,1.0636201,3,31,17,16,1,1,0.65331201,3,31,18,16,1,1,0.69375201,3,32,1,8,2,2,0.60912201,3,32,2,12,2,2,0.56729201,3,32,3,8,1,1,0.63857201,3,32,4,12,1,1,0.78352201,3,32,5,8,2,2,0.56712201,3,32,6,16,2,2,1.2775201,3,32,7,12,1,1,1.0228201,3,32,8,12,2,2,1.1427201,3,32,9,8,2,2,0.87105201,3,32,10,12,1,1,0.84615201,3,32,11,8,1,1,1.2561201,3,32,12,16,2,2,1.134201,3,32,13,16,2,2,1.0145201,3,32,14,16,1,1,0.90241201,3,32,15,8,2,2,0.83057201,3,32,16,16,1,1,1.2304201,3,32,17,16,1,2,0.9181201,3,32,18,12,1,1,1.4394201,4,1,1,12,1,1,0.85701201,4,1,2,12,1,1,0.85383201,4,1,3,16,2,2,1.1104201,4,1,4,8,1,1,0.6876201,4,1,5,8,1,1,0.73597201,4,1,6,16,2,2,0.66267201,4,1,7,8,1,1,0.72743201,4,1,8,12,2,2,0.62301201,4,1,9,8,1,1,0.6885201,4,1,10,12,1,1,1.1505201,4,1,11,16,1,1,0.83143201,4,1,12,8,1,1,0.6468201,4,1,13,12,1,1,0.75122201,4,1,14,16,2,2,0.61556201,4,1,15,16,1,1,0.64599201,4,1,16,16,1,1,0.78393201,4,1,17,8,2,2,0.5593201,4,1,18,12,1,1,0.76621201,4,2,1,8,1,1,1.0841201,4,2,2,12,1,1,0.85484201,4,2,3,12,1,1,0.7285201,4,2,4,8,1,1,0.77556201,4,2,5,12,2,2,0.63069201,4,2,6,16,2,2,0.72702201,4,2,7,16,1,1,0.91005201,4,2,8,12,2,2,0.84054201,4,2,9,12,2,2,0.75108201,4,2,10,16,1,1,0.69439201,4,2,11,12,2,2,0.98404201,4,2,12,8,2,2,0.85431201,4,2,13,8,1,1,0.68915201,4,2,14,16,1,2,1.7652201,4,2,15,16,1,1,1.0797201,4,2,16,16,1,1,0.67786201,4,2,17,8,1,1,0.71141201,4,2,18,8,1,1,0.95226201,4,3,1,8,2,1,1.0575201,4,3,2,8,2,2,0.783201,4,3,3,16,2,2,0.55032201,4,3,4,8,2,2,0.69631201,4,3,5,16,2,2,1.4704201,4,3,6,12,1,1,0.68708201,4,3,7,16,1,1,0.79001201,4,3,8,16,1,1,0.77424201,4,3,9,8,2,2,1.2083201,4,3,10,8,1,1,0.63188201,4,3,11,12,1,1,0.60628201,4,3,12,12,1,1,0.98231201,4,3,13,16,1,1,0.60715201,4,3,14,8,1,1,0.67937201,4,3,15,16,1,1,0.98215201,4,3,16,12,1,1,0.75053201,4,3,17,12,2,2,0.75214201,4,3,18,12,1,1,0.71883201,4,4,1,12,1,1,1.0327201,4,4,2,8,2,2,0.80039201,4,4,3,16,2,2,0.62283201,4,4,4,16,2,2,0.77374201,4,4,5,16,2,2,0.81508201,4,4,6,12,2,2,0.74224201,4,4,7,8,2,2,0.74333201,4,4,8,16,2,2,0.55092201,4,4,9,8,2,2,0.66379201,4,4,10,12,2,2,1.0543201,4,4,11,12,1,1,0.80659201,4,4,12,12,1,1,0.57575201,4,4,13,8,2,2,0.64762201,4,4,14,16,1,1,0.69317201,4,4,15,12,2,2,0.7204201,4,4,16,16,2,2,0.66227201,4,4,17,8,2,2,0.70309201,4,4,18,8,1,1,0.80755201,4,5,1,12,1,1,0.77763201,4,5,2,8,2,2,0.71015201,4,5,3,12,2,2,0.7035201,4,5,4,16,2,2,0.80652201,4,5,5,8,1,2,0.60644201,4,5,6,16,2,2,1.303201,4,5,7,16,1,1,0.95912201,4,5,8,12,2,2,0.8938201,4,5,9,12,2,2,0.90268201,4,5,10,16,2,2,0.92796201,4,5,11,8,2,2,0.64614201,4,5,12,12,2,2,0.57568201,4,5,13,16,2,2,0.70294201,4,5,14,12,2,2,0.77421201,4,5,15,16,1,1,0.90357201,4,5,16,8,2,2,0.64677201,4,5,17,8,2,2,0.78435201,4,5,18,8,1,1,0.93508201,4,6,1,12,1,1,0.54594201,4,6,2,8,2,2,0.53578201,4,6,3,16,2,2,1.0615201,4,6,4,8,1,1,0.83947201,4,6,5,8,2,2,0.57538201,4,6,6,12,1,1,1.0145201,4,6,7,8,2,2,0.87113201,4,6,8,12,1,1,0.68051201,4,6,9,16,2,2,1.0298201,4,6,10,8,1,1,0.83172201,4,6,11,16,1,1,1.1585201,4,6,12,12,2,2,1.0391201,4,6,13,16,2,1,0.83084201,4,6,14,16,1,1,1.5813201,4,6,15,8,2,2,0.73521201,4,6,16,16,2,2,1.2385201,4,6,17,12,1,1,1.1829201,4,6,18,12,2,2,0.79148201,4,7,1,8,2,2,1.0496201,4,7,2,12,2,2,0.90374201,4,7,3,16,1,1,0.66177201,4,7,4,16,2,2,0.79171201,4,7,5,8,1,1,1.0064201,4,7,6,16,1,1,0.58191201,4,7,7,16,2,2,0.66267201,4,7,8,12,1,1,1.1269201,4,7,9,12,2,2,1.0072201,4,7,10,16,1,1,1.7578201,4,7,11,12,2,2,0.91923201,4,7,12,8,2,2,0.90231201,4,7,13,12,1,1,0.71284201,4,7,14,8,1,1,0.85552201,4,7,15,8,2,2,0.54978201,4,7,16,8,1,1,0.95249201,4,7,17,12,2,2,0.66164201,4,7,18,16,1,1,0.86394201,4,8,1,12,1,1,0.94462201,4,8,2,8,2,2,0.52761201,4,8,3,12,1,1,0.54304201,4,8,4,12,1,1,0.75112201,4,8,5,8,2,2,0.67886201,4,8,6,12,1,1,0.79157201,4,8,7,8,2,2,1.1922201,4,8,8,16,1,1,0.98237201,4,8,9,16,2,2,0.646201,4,8,10,16,1,1,0.69339201,4,8,11,12,2,2,0.88063201,4,8,12,8,1,1,0.98224201,4,8,13,16,2,2,0.74929201,4,8,14,16,2,2,0.86332201,4,8,15,8,1,1,0.72021201,4,8,16,12,2,2,0.91836201,4,8,17,16,1,1,0.85413201,4,8,18,8,2,2,0.76798201,4,9,1,8,2,2,1.0328201,4,9,2,16,1,1,0.67088201,4,9,3,12,1,1,0.75096201,4,9,4,12,2,2,0.89547201,4,9,5,8,1,1,0.64732201,4,9,6,12,2,2,0.68495201,4,9,7,16,2,2,0.5362201,4,9,8,8,2,2,0.8468201,4,9,9,12,1,1,0.56736201,4,9,10,16,2,2,0.54124201,4,9,11,8,1,1,0.56731201,4,9,12,8,1,1,0.94255201,4,9,13,12,2,2,0.8725201,4,9,14,16,2,2,0.86126201,4,9,15,12,2,2,0.60828201,4,9,16,8,1,1,0.54301201,4,9,17,16,1,2,1.5984201,4,9,18,16,2,2,1.0862201,4,10,1,8,2,2,1.2398201,4,10,2,12,1,1,0.95989201,4,10,3,12,2,2,1.0144201,4,10,4,16,1,1,0.61442201,4,10,5,12,1,1,0.67137201,4,10,6,8,2,2,0.55205201,4,10,7,8,1,1,0.82333201,4,10,8,8,2,2,1.1822201,4,10,9,8,2,2,1.0884201,4,10,10,16,2,2,0.6294201,4,10,11,12,2,2,0.86353201,4,10,12,16,1,1,0.83873201,4,10,13,16,2,2,1.03201,4,10,14,12,1,1,0.7592201,4,10,15,16,1,1,0.65415201,4,10,16,12,2,2,0.77593201,4,10,17,8,2,2,0.62246201,4,10,18,16,2,2,1.2785201,4,11,1,8,1,1,1.0262201,4,11,2,12,2,2,0.65546201,4,11,3,16,1,1,0.66919201,4,11,4,16,1,1,0.67849201,4,11,5,16,2,2,0.55198201,4,11,6,16,2,2,1.2292201,4,11,7,12,1,1,0.59108201,4,11,8,12,1,1,0.79871201,4,11,9,16,1,1,0.60681201,4,11,10,16,2,2,0.86192201,4,11,11,8,2,2,1.0236201,4,11,12,8,2,2,0.99986201,4,11,13,12,1,1,0.7674201,4,11,14,8,1,1,0.90244201,4,11,15,12,1,1,1.1589201,4,11,16,8,1,1,0.73575201,4,11,17,8,2,1,1.1357201,4,11,18,12,1,1,0.91801201,4,12,1,16,2,2,1.5372201,4,12,2,8,2,2,0.80716201,4,12,3,12,1,1,0.96781201,4,12,4,16,1,2,0.74943201,4,12,5,12,2,2,1.2477201,4,12,6,8,1,1,0.75908201,4,12,7,16,2,2,0.96638201,4,12,8,8,1,1,0.86344201,4,12,9,8,1,1,0.879201,4,12,10,12,1,1,0.86344201,4,12,11,12,1,1,0.97511201,4,12,12,12,1,1,1.0855201,4,12,13,8,1,1,1.192201,4,12,14,16,2,2,1.4317201,4,12,15,8,2,2,0.59937201,4,12,16,16,1,1,0.68624201,4,12,17,16,2,2,0.88638201,4,12,18,12,2,2,0.87842201,4,13,1,16,1,1,0.68146201,4,13,2,12,1,1,0.85451201,4,13,3,8,2,2,0.60718201,4,13,4,8,2,2,0.58301201,4,13,5,16,1,1,0.78192201,4,13,6,12,2,2,0.74415201,4,13,7,8,1,1,0.73462201,4,13,8,12,1,1,0.61561201,4,13,9,8,2,2,0.65578201,4,13,10,12,2,2,1.2069201,4,13,11,12,2,2,0.82209201,4,13,12,16,1,1,0.9829201,4,13,13,8,2,2,0.69526201,4,13,14,12,2,2,0.50304201,4,13,15,8,1,1,0.92685201,4,13,16,16,1,1,1.0952201,4,13,17,16,1,1,0.87071201,4,13,18,16,2,2,1.2623201,4,14,1,12,1,1,1.4404201,4,14,2,12,2,1,0.92703201,4,14,3,8,2,2,0.77583201,4,14,4,8,1,1,0.73457201,4,14,5,16,1,1,0.95888201,4,14,6,12,2,2,0.79106201,4,14,7,8,2,2,0.75081201,4,14,8,8,1,1,0.65636201,4,14,9,8,2,2,0.96691201,4,14,10,16,1,1,0.86224201,4,14,11,12,1,1,0.67166201,4,14,12,16,2,2,1.142201,4,14,13,12,1,1,0.88016201,4,14,14,8,2,2,0.69546201,4,14,15,16,1,1,0.86958201,4,14,16,16,1,1,1.2798201,4,14,17,12,1,1,0.6456201,4,14,18,16,1,1,0.68719201,4,15,1,12,2,2,0.94522201,4,15,2,16,1,1,1.3983201,4,15,3,12,1,1,0.66375201,4,15,4,8,1,1,0.51172201,4,15,5,8,2,2,0.70249201,4,15,6,16,2,2,0.55116201,4,15,7,12,2,2,0.57408201,4,15,8,16,1,1,1.3912201,4,15,9,8,2,1,0.71123201,4,15,10,12,2,2,1.0703201,4,15,11,12,2,2,0.57487201,4,15,12,8,1,1,1.2314201,4,15,13,12,2,2,1.2704201,4,15,14,16,2,2,1.5909201,4,15,15,16,2,2,1.0381201,4,15,16,16,1,1,0.87944201,4,15,17,8,1,1,0.78407201,4,15,18,8,2,2,1.1431201,4,16,1,16,2,2,0.84944201,4,16,2,12,1,1,1.0395201,4,16,3,12,1,1,0.86168201,4,16,4,12,2,2,0.70296201,4,16,5,12,2,2,0.79911201,4,16,6,12,1,1,0.79064201,4,16,7,8,2,2,0.6158201,4,16,8,16,1,1,1.0232201,4,16,9,12,2,2,0.6142201,4,16,10,16,2,2,0.84616201,4,16,11,8,2,2,0.66376201,4,16,12,8,2,2,0.78286201,4,16,13,8,1,1,0.83137201,4,16,14,16,2,2,0.71111201,4,16,15,8,1,1,0.85517201,4,16,16,16,2,2,0.89435201,4,16,17,16,2,2,0.63846201,4,16,18,8,1,1,0.77661201,4,17,1,8,2,2,0.84137201,4,17,2,8,2,2,0.67162201,4,17,3,8,2,2,0.51827201,4,17,4,12,1,1,0.54459201,4,17,5,16,1,1,0.75804201,4,17,6,16,2,2,0.53334201,4,17,7,12,1,1,1.1273201,4,17,8,12,1,1,0.655201,4,17,9,12,2,2,0.63849201,4,17,10,16,2,2,0.79977201,4,17,11,16,2,2,1.2863201,4,17,12,8,1,1,0.79904201,4,17,13,8,2,2,0.63188201,4,17,14,12,2,2,0.70284201,4,17,15,8,2,2,0.73438201,4,17,16,16,2,2,0.93529201,4,17,17,12,1,1,0.62302201,4,17,18,16,2,2,1.6068201,4,18,1,8,1,1,1.0342201,4,18,2,8,1,1,1.0376201,4,18,3,12,2,2,0.81661201,4,18,4,16,2,2,0.67757201,4,18,5,16,1,1,0.8067201,4,18,6,12,2,2,0.97421201,4,18,7,12,1,1,1.1262201,4,18,8,16,1,1,0.81536201,4,18,9,8,2,2,0.78274201,4,18,10,12,1,1,0.76754201,4,18,11,16,2,2,0.74191201,4,18,12,16,1,1,0.80695201,4,18,13,8,1,1,0.99982201,4,18,14,12,1,2,0.90224201,4,18,15,12,1,1,1.2718201,4,18,16,8,2,2,1.0559201,4,18,17,8,2,2,0.57505201,4,18,18,16,1,1,1.239201,4,19,1,16,2,2,0.63313201,4,19,2,12,2,2,0.59867201,4,19,3,12,2,2,0.49452201,4,19,4,12,2,2,0.5274201,4,19,5,12,2,2,0.68645201,4,19,6,16,2,2,0.69508201,4,19,7,8,1,1,0.8236201,4,19,8,16,2,2,0.9423201,4,19,9,12,1,1,0.815201,4,19,10,16,2,2,0.67104201,4,19,11,8,2,2,0.50317201,4,19,12,16,2,2,0.50982201,4,19,13,8,1,1,0.64009201,4,19,14,8,1,1,0.75063201,4,19,15,8,1,1,0.84065201,4,19,16,12,1,1,0.8222201,4,19,17,16,1,1,0.5264201,4,19,18,8,1,1,0.8229201,4,20,1,16,1,1,1.0233201,4,20,2,16,1,1,1.3283201,4,20,3,8,1,1,0.82271201,4,20,4,16,2,2,1.0783201,4,20,5,8,2,2,0.75925201,4,20,6,12,2,2,0.96771201,4,20,7,12,1,1,1.1903201,4,20,8,16,2,2,0.85458201,4,20,9,8,2,2,0.8717201,4,20,10,8,1,1,0.67027201,4,20,11,12,1,1,1.0551201,4,20,12,12,1,1,0.75157201,4,20,13,12,1,1,0.63005201,4,20,14,8,2,2,0.58316201,4,20,15,16,1,1,1.8073201,4,20,16,8,1,1,0.75097201,4,20,17,12,1,1,0.71178201,4,20,18,16,1,1,0.87739201,4,21,1,8,1,1,0.90599201,4,21,2,8,2,2,0.75043201,4,21,3,16,2,2,0.91879201,4,21,4,8,1,1,0.83976201,4,21,5,12,1,1,0.80628201,4,21,6,12,2,2,0.67174201,4,21,7,12,1,1,0.96718201,4,21,8,8,2,2,0.63952201,4,21,9,16,1,1,0.81348201,4,21,10,8,1,1,0.65747201,4,21,11,8,1,1,0.50263201,4,21,12,16,1,1,0.80554201,4,21,13,16,1,1,0.63101201,4,21,14,16,1,1,0.51852201,4,21,15,12,1,1,0.75044201,4,21,16,12,1,1,0.90265201,4,21,17,16,2,2,0.6394201,4,21,18,12,2,2,0.82208201,4,22,1,12,2,2,0.58539201,4,22,2,8,1,1,0.82315201,4,22,3,12,1,1,0.49416201,4,22,4,16,1,1,1.2881201,4,22,5,16,2,2,1.0706201,4,22,6,16,2,2,0.9414201,4,22,7,8,1,1,0.72764201,4,22,8,8,1,1,0.57486201,4,22,9,16,1,1,0.91894201,4,22,10,16,2,2,0.61378201,4,22,11,12,2,2,0.80783201,4,22,12,12,1,1,0.91866201,4,22,13,8,2,2,0.9346201,4,22,14,8,2,2,0.58314201,4,22,15,16,2,2,0.73515201,4,22,16,12,1,1,0.71894201,4,22,17,8,2,2,0.57572201,4,22,18,12,1,1,1.479201,4,23,1,8,2,2,0.53687201,4,23,2,8,2,2,0.45607201,4,23,3,16,1,1,1.2475201,4,23,4,16,2,2,1.1341201,4,23,5,8,2,2,0.99022201,4,23,6,8,2,2,0.5754201,4,23,7,8,1,1,0.79249201,4,23,8,16,1,2,1.503201,4,23,9,16,1,1,1.2058201,4,23,10,12,1,1,0.54384201,4,23,11,12,1,1,0.65421201,4,23,12,8,2,2,0.70309201,4,23,13,12,1,1,0.95219201,4,23,14,12,2,2,0.6371201,4,23,15,12,1,1,0.65624201,4,23,16,16,1,1,0.91879201,4,23,17,12,2,2,0.87845201,4,23,18,16,2,2,0.49436201,4,24,1,16,2,2,1.1845201,4,24,2,16,1,1,0.75061201,4,24,3,16,1,1,0.94235201,4,24,4,12,1,1,0.90267201,4,24,5,8,2,2,0.58291201,4,24,6,12,1,1,0.90315201,4,24,7,8,2,2,0.84019201,4,24,8,12,1,1,0.90191201,4,24,9,8,1,1,1.3992201,4,24,10,16,1,1,0.57435201,4,24,11,12,1,2,1.24201,4,24,12,8,1,1,1.0957201,4,24,13,12,2,2,1.6058201,4,24,14,12,1,1,0.69623201,4,24,15,8,2,2,1.6619201,4,24,16,16,2,2,0.67975201,4,24,17,8,1,2,0.98352201,4,24,18,16,1,1,0.78168201,5,1,1,12,1,1,0.75438201,5,1,2,12,1,1,0.90471201,5,1,3,16,2,2,0.59251201,5,1,4,8,1,1,0.92047201,5,1,5,8,1,1,0.62377201,5,1,6,16,2,2,0.64902201,5,1,7,8,1,1,1.4255201,5,1,8,12,2,2,0.63118201,5,1,9,8,1,1,0.87287201,5,1,10,12,1,1,0.6159201,5,1,11,16,1,1,1.2234201,5,1,12,8,1,1,0.55273201,5,1,13,12,1,1,0.55211201,5,1,14,16,2,2,0.59131201,5,1,15,16,1,1,1.1278201,5,1,16,16,1,1,1.4563201,5,1,17,8,2,2,0.93281201,5,1,18,12,1,1,0.80778201,5,2,1,8,1,1,0.66401201,5,2,2,12,1,1,0.86419201,5,2,3,12,1,1,0.87171201,5,2,4,8,1,1,0.64033201,5,2,5,12,2,2,0.98373201,5,2,6,16,2,2,1.9674201,5,2,7,16,1,1,1.5199201,5,2,8,12,2,2,0.87997201,5,2,9,12,2,2,0.84362201,5,2,10,16,1,1,0.68732201,5,2,11,12,2,2,1.0408201,5,2,12,8,2,2,1.1921201,5,2,13,8,1,1,0.8646201,5,2,14,16,1,1,1.1837201,5,2,15,16,1,2,1.8403201,5,2,16,16,1,1,0.71077201,5,2,17,8,1,1,0.63231201,5,2,18,8,1,1,0.89595201,5,3,1,8,2,2,1.7484201,5,3,2,8,2,2,0.66355201,5,3,3,16,2,2,1.3679201,5,3,4,8,2,2,0.68841201,5,3,5,16,2,2,1.6077201,5,3,6,12,1,1,1.0553201,5,3,7,16,1,1,0.83932201,5,3,8,16,1,1,0.74318201,5,3,9,8,2,2,0.90447201,5,3,10,8,1,1,0.82429201,5,3,11,12,1,1,0.70412201,5,3,12,12,1,1,0.91978201,5,3,13,16,1,1,0.84773201,5,3,14,8,1,1,0.82443201,5,3,15,16,1,1,0.73537201,5,3,16,12,1,1,1.0799201,5,3,17,12,2,2,0.93619201,5,3,18,12,1,1,0.64815201,5,4,1,12,1,1,0.77116201,5,4,2,8,2,2,0.64075201,5,4,3,16,2,2,0.6716201,5,4,4,16,2,2,0.50403201,5,4,5,16,2,2,1.0083201,5,4,6,12,2,2,0.71938201,5,4,7,8,2,2,0.74404201,5,4,8,16,2,2,0.5033201,5,4,9,8,2,2,0.72034201,5,4,10,12,2,2,0.84792201,5,4,11,12,1,1,1.1926201,5,4,12,12,1,1,0.61617201,5,4,13,8,2,2,0.55206201,5,4,14,16,1,1,0.67242201,5,4,15,12,2,2,1.0325201,5,4,16,16,2,2,0.51912201,5,4,17,8,2,2,1.464201,5,4,18,8,1,1,0.69672201,5,5,1,12,1,1,0.85988201,5,5,2,8,2,2,1.0555201,5,5,3,12,2,2,0.86389201,5,5,4,16,2,2,0.78406201,5,5,5,8,1,1,0.57574201,5,5,6,16,2,2,0.95209201,5,5,7,16,1,1,1.4719201,5,5,8,12,2,2,0.87082201,5,5,9,12,2,2,0.61689201,5,5,10,16,2,2,1.3035201,5,5,11,8,2,2,0.63222201,5,5,12,12,2,2,0.66367201,5,5,13,16,2,2,0.53582201,5,5,14,12,2,2,1.5603201,5,5,15,16,1,1,1.7359201,5,5,16,8,2,2,0.96757201,5,5,17,8,2,2,0.82485201,5,5,18,8,1,1,0.7356201,5,6,1,12,1,1,0.83605201,5,6,2,8,2,2,0.64835201,5,6,3,16,2,2,0.91951201,5,6,4,8,1,1,0.62388201,5,6,5,8,2,2,0.61582201,5,6,6,12,1,1,1.7691201,5,6,7,8,2,2,0.63212201,5,6,8,12,1,1,0.83959201,5,6,9,16,2,2,1.0876201,5,6,10,8,1,1,0.78516201,5,6,11,16,1,1,0.80568201,5,6,12,12,2,2,0.68873201,5,6,13,16,2,2,1.048201,5,6,14,16,1,1,0.71955201,5,6,15,8,2,2,0.53617201,5,6,16,16,2,2,0.94353201,5,6,17,12,1,1,1.1759201,5,6,18,12,2,2,0.76018201,5,7,1,8,2,2,0.76282201,5,7,2,12,2,2,0.56013201,5,7,3,16,1,1,0.85653201,5,7,4,16,2,2,0.75182201,5,7,5,8,1,1,0.8006201,5,7,6,16,1,1,1.2158201,5,7,7,16,2,2,0.5109201,5,7,8,12,1,1,0.72094201,5,7,9,12,2,2,0.85501201,5,7,10,16,1,1,1.4158201,5,7,11,12,2,2,1.0716201,5,7,12,8,2,2,0.78364201,5,7,13,12,1,1,0.75124201,5,7,14,8,1,1,0.7118201,5,7,15,8,2,2,0.82372201,5,7,16,8,1,1,0.94375201,5,7,17,12,2,2,1.0474201,5,7,18,16,1,1,1.031201,5,8,1,12,1,1,0.77228201,5,8,2,8,2,2,0.9279201,5,8,3,12,1,1,1.3757201,5,8,4,12,1,1,0.52753201,5,8,5,8,2,2,0.59177201,5,8,6,12,1,1,1.2632201,5,8,7,8,2,2,1.0963201,5,8,8,16,1,1,0.92752201,5,8,9,16,2,2,1.1988201,5,8,10,16,1,1,0.8872201,5,8,11,12,2,2,0.95947201,5,8,12,8,1,1,0.65622201,5,8,13,16,2,2,1.239201,5,8,14,16,2,2,1.0319201,5,8,15,8,1,1,0.65565201,5,8,16,12,2,2,0.59985201,5,8,17,16,1,1,1.6201,5,8,18,8,2,2,0.63961201,5,9,1,8,2,2,0.64313201,5,9,2,16,1,1,0.83962201,5,9,3,12,1,1,0.87892201,5,9,4,12,2,2,0.82345201,5,9,5,8,1,1,1.0723201,5,9,6,12,2,2,0.69574201,5,9,7,16,2,2,0.55225201,5,9,8,8,2,2,0.83153201,5,9,9,12,1,1,1.7196201,5,9,10,16,2,2,1.3684201,5,9,11,8,1,1,0.89443201,5,9,12,8,1,1,1.017201,5,9,13,12,2,2,0.79114201,5,9,14,16,2,2,0.55167201,5,9,15,12,2,2,0.53545201,5,9,16,8,1,1,0.91231201,5,9,17,16,1,1,0.72701201,5,9,18,16,2,2,0.84682201,5,10,1,8,2,2,0.99475201,5,10,2,12,1,1,0.68799201,5,10,3,12,2,2,0.63171201,5,10,4,16,1,1,0.68739201,5,10,5,12,1,1,0.83186201,5,10,6,8,2,2,0.51992201,5,10,7,8,1,1,0.71168201,5,10,8,8,2,2,0.792201,5,10,9,8,2,2,0.72835201,5,10,10,16,2,2,1.0391201,5,10,11,12,2,2,0.89545201,5,10,12,16,1,1,0.75163201,5,10,13,16,2,2,0.99148201,5,10,14,12,1,1,0.76805201,5,10,15,16,1,1,0.73509201,5,10,16,12,2,2,0.55189201,5,10,17,8,2,2,0.48743201,5,10,18,16,2,2,0.91169201,5,11,1,8,1,1,1.0517201,5,11,2,12,2,2,0.59106201,5,11,3,16,1,1,0.81588201,5,11,4,16,1,1,0.82333201,5,11,5,16,2,2,0.7271201,5,11,6,16,2,2,0.69542201,5,11,7,12,1,1,0.59168201,5,11,8,12,1,1,1.272201,5,11,9,16,1,1,0.75131201,5,11,10,16,2,2,0.55879201,5,11,11,8,2,2,0.56834201,5,11,12,8,2,1,1.5444201,5,11,13,12,1,1,1.0712201,5,11,14,8,1,1,0.60858201,5,11,15,12,1,1,0.97523201,5,11,16,8,1,1,0.62376201,5,11,17,8,2,2,0.74441201,5,11,18,12,1,1,0.71178201,5,12,1,16,2,2,0.76355201,5,12,2,8,2,2,0.92889201,5,12,3,12,1,1,0.61548201,5,12,4,16,1,1,0.6469201,5,12,5,12,2,2,0.67134201,5,12,6,8,1,1,1.6165201,5,12,7,16,2,2,1.3829201,5,12,8,8,1,1,0.68832201,5,12,9,8,1,1,0.6488201,5,12,10,12,1,1,0.59949201,5,12,11,12,1,1,0.7359201,5,12,12,12,1,1,0.5997201,5,12,13,8,1,1,1.0079201,5,12,14,16,2,2,1.0475201,5,12,15,8,2,2,0.77569201,5,12,16,16,1,0,0201,5,12,17,16,2,2,0.92639201,5,12,18,12,2,2,1.1602201,5,13,1,16,1,1,1.259201,5,13,2,12,1,1,0.66446201,5,13,3,8,2,1,0.56055201,5,13,4,8,2,2,0.95927201,5,13,5,16,1,1,1.111201,5,13,6,12,2,2,0.9438201,5,13,7,8,1,1,0.99179201,5,13,8,12,1,1,0.6157201,5,13,9,8,2,2,0.83988201,5,13,10,12,2,2,0.63151201,5,13,11,12,2,2,0.59176201,5,13,12,16,1,1,1.295201,5,13,13,8,2,2,0.76904201,5,13,14,12,2,2,1.3598201,5,13,15,8,1,1,1.0801201,5,13,16,16,1,1,1.6552201,5,13,17,16,1,2,1.8389201,5,13,18,16,2,1,1.3993201,5,14,1,12,1,1,0.94782201,5,14,2,12,2,2,1.1923201,5,14,3,8,2,2,0.71187201,5,14,4,8,1,1,1.1123201,5,14,5,16,1,1,1.5189201,5,14,6,12,2,2,1.5434201,5,14,7,8,2,2,0.56047201,5,14,8,8,1,1,1.0163201,5,14,9,8,2,2,1.1604201,5,14,10,16,1,1,0.67171201,5,14,11,12,1,1,1.2394201,5,14,12,16,2,2,0.84761201,5,14,13,12,1,1,0.85542201,5,14,14,8,2,2,1.0484201,5,14,15,16,1,1,1.5918201,5,14,16,16,1,1,0.92825201,5,14,17,12,1,1,1.1351201,5,14,18,16,1,1,0.69634201,5,15,1,12,2,2,1.7721201,5,15,2,16,1,1,1.1432201,5,15,3,12,1,1,1.0557201,5,15,4,8,1,1,0.7157201,5,15,5,8,2,2,0.77692201,5,15,6,16,2,2,0.57546201,5,15,7,12,2,2,0.73535201,5,15,8,16,1,1,1.6157201,5,15,9,8,2,2,0.82427201,5,15,10,12,2,2,0.91182201,5,15,11,12,2,2,0.64804201,5,15,12,8,1,1,0.66367201,5,15,13,12,2,2,0.99167201,5,15,14,16,2,2,0.79179201,5,15,15,16,2,2,0.71926201,5,15,16,16,1,1,0.70372201,5,15,17,8,1,2,0.69385201,5,15,18,8,2,2,0.88795201,5,16,1,16,2,2,0.69913201,5,16,2,12,1,1,1.3285201,5,16,3,12,1,1,0.86414201,5,16,4,12,2,2,0.89501201,5,16,5,12,2,2,0.80839201,5,16,6,12,1,1,1.2312201,5,16,7,8,2,2,0.82435201,5,16,8,16,1,1,0.61537201,5,16,9,12,2,2,0.83164201,5,16,10,16,2,2,0.75121201,5,16,11,8,2,2,0.82485201,5,16,12,8,2,2,0.57517201,5,16,13,8,1,1,0.76032201,5,16,14,16,2,2,0.86368201,5,16,15,8,1,1,0.87234201,5,16,16,16,2,2,1.2955201,5,16,17,16,2,2,0.7834201,5,16,18,8,1,1,0.62432201,5,17,1,8,2,2,0.8838201,5,17,2,8,2,2,0.83196201,5,17,3,8,2,2,0.64787201,5,17,4,12,1,1,0.69614201,5,17,5,16,1,1,0.77507201,5,17,6,16,2,2,0.63927201,5,17,7,12,1,1,0.89651201,5,17,8,12,1,1,0.76036201,5,17,9,12,2,2,0.58278201,5,17,10,16,2,2,1.2876201,5,17,11,16,2,2,0.96707201,5,17,12,8,1,1,0.75221201,5,17,13,8,2,2,0.75994201,5,17,14,12,2,2,1.4245201,5,17,15,8,2,2,0.91945201,5,17,16,16,2,2,0.55948201,5,17,17,12,1,1,0.75131201,5,17,18,16,2,2,1.4078201,5,18,1,8,1,1,0.76412201,5,18,2,8,1,1,0.63167201,5,18,3,12,2,2,0.84764201,5,18,4,16,2,1,0.99151201,5,18,5,16,1,1,1.0716201,5,18,6,12,2,2,0.71989201,5,18,7,12,1,1,0.88759201,5,18,8,16,1,1,1.0397201,5,18,9,8,2,2,1.0317201,5,18,10,12,1,1,0.82342201,5,18,11,16,2,2,1.1437201,5,18,12,16,1,1,0.81571201,5,18,13,8,1,1,0.81602201,5,18,14,12,1,1,0.95225201,5,18,15,12,1,1,0.66334201,5,18,16,8,2,2,0.65645201,5,18,17,8,2,2,0.82458201,5,18,18,16,1,1,0.71888201,5,19,1,16,2,2,0.73093201,5,19,2,12,2,2,0.87193201,5,19,3,12,2,2,0.7105201,5,19,4,12,2,2,0.81537201,5,19,5,12,2,2,0.68861201,5,19,6,16,2,2,0.72664201,5,19,7,8,1,1,1.4646201,5,19,8,16,2,2,0.73546201,5,19,9,12,1,1,0.86384201,5,19,10,16,2,2,0.95131201,5,19,11,8,2,2,0.72035201,5,19,12,16,2,2,0.89531201,5,19,13,8,1,1,0.64814201,5,19,14,8,1,1,0.74496201,5,19,15,8,1,1,0.79921201,5,19,16,12,1,1,1.0323201,5,19,17,16,1,1,0.91085201,5,19,18,8,1,1,1.3519201,5,20,1,16,1,1,1.1233201,5,20,2,16,1,1,0.67952201,5,20,3,8,1,1,1.096201,5,20,4,16,2,2,0.68733201,5,20,5,8,2,2,0.61672201,5,20,6,12,2,2,0.58416201,5,20,7,12,1,1,0.84845201,5,20,8,16,2,2,0.92603201,5,20,9,8,2,2,0.54428201,5,20,10,8,1,1,0.77628201,5,20,11,12,1,1,1.0724201,5,20,12,12,1,1,0.64718201,5,20,13,12,1,1,0.65666201,5,20,14,8,2,2,0.78435201,5,20,15,16,1,1,0.76857201,5,20,16,8,1,1,0.6201,5,20,17,12,1,1,1.3916201,5,20,18,16,1,1,0.63191201,5,21,1,8,1,1,0.6833201,5,21,2,8,2,2,0.64096201,5,21,3,16,2,2,0.66339201,5,21,4,8,1,1,1.1613201,5,21,5,12,1,1,1.103201,5,21,6,12,2,2,1.6162201,5,21,7,12,1,1,0.78444201,5,21,8,8,2,2,0.70471201,5,21,9,16,1,1,1.6793201,5,21,10,8,1,1,1.0079201,5,21,11,8,1,1,0.76863201,5,21,12,16,1,1,0.79097201,5,21,13,16,1,1,0.68811201,5,21,14,16,1,1,0.97624201,5,21,15,12,1,1,0.68797201,5,21,16,12,1,1,0.93559201,5,21,17,16,2,2,0.66385201,5,21,18,12,2,2,0.71236201,5,22,1,12,2,2,0.6669201,5,22,2,8,1,1,0.60931201,5,22,3,12,1,1,0.69332201,5,22,4,16,1,1,0.84418201,5,22,5,16,2,2,0.84397201,5,22,6,16,2,2,0.72775201,5,22,7,8,1,1,0.96819201,5,22,8,8,1,1,0.60093201,5,22,9,16,1,1,0.75949201,5,22,10,16,2,2,0.91155201,5,22,11,12,2,2,0.84812201,5,22,12,12,1,1,1.1051201,5,22,13,8,2,2,1.4224201,5,22,14,8,2,2,0.57603201,5,22,15,16,2,2,0.79221201,5,22,16,12,1,1,0.863201,5,22,17,8,2,2,0.91229201,5,22,18,12,1,1,0.68532201,5,23,1,8,2,2,0.59537201,5,23,2,8,2,2,1.0085201,5,23,3,16,1,1,1.5761201,5,23,4,16,2,2,0.87044201,5,23,5,8,2,2,0.49654201,5,23,6,8,2,2,0.75252201,5,23,7,8,1,1,1.1925201,5,23,8,16,1,1,0.82317201,5,23,9,16,1,1,0.9042201,5,23,10,12,1,1,0.49559201,5,23,11,12,1,1,1.3922201,5,23,12,8,2,2,0.98432201,5,23,13,12,1,1,1.055201,5,23,14,12,2,2,0.51987201,5,23,15,12,1,1,1.2879201,5,23,16,16,1,1,0.52685201,5,23,17,12,2,2,0.76092201,5,23,18,16,2,2,0.55948201,5,24,1,16,2,2,0.54725201,5,24,2,16,1,1,0.92856201,5,24,3,16,1,1,0.91957201,5,24,4,12,1,1,0.53598201,5,24,5,8,2,2,0.92036201,5,24,6,12,1,0,0201,5,24,7,8,2,2,0.62425201,5,24,8,12,1,1,0.51991201,5,24,9,8,1,1,0.96897201,5,24,10,16,1,1,0.73519201,5,24,11,12,1,1,1.3363201,5,24,12,8,1,1,0.52759201,5,24,13,12,2,2,0.67219201,5,24,14,12,1,1,0.95253201,5,24,15,8,2,2,0.73653201,5,24,16,16,2,2,1.0469201,5,24,17,8,1,1,0.59244201,5,24,18,16,1,1,1.1114201,5,25,1,16,1,1,0.86674201,5,25,2,8,1,1,0.52768201,5,25,3,12,2,2,0.65656201,5,25,4,8,2,2,0.62464201,5,25,5,8,1,1,0.52793201,5,25,6,8,1,1,0.61679201,5,25,7,12,2,2,0.60815201,5,25,8,8,1,1,0.9198201,5,25,9,12,1,1,1.0401201,5,25,10,12,1,1,0.46309201,5,25,11,16,1,1,0.70381201,5,25,12,16,2,2,0.89542201,5,25,13,8,1,1,1.2159201,5,25,14,12,2,2,0.85564201,5,25,15,16,2,2,1.2074201,5,25,16,16,2,1,1.5683201,5,25,17,16,1,1,1.4712201,5,25,18,12,2,2,0.71894201,5,26,1,8,1,1,1.035201,5,26,2,8,1,1,0.83209201,5,26,3,12,1,1,0.55261201,5,26,4,8,2,2,0.60806201,5,26,5,16,1,1,1.0162201,5,26,6,16,2,2,0.60788201,5,26,7,8,1,1,0.80802201,5,26,8,12,2,2,0.66409201,5,26,9,12,2,2,0.79924201,5,26,10,12,1,1,0.92062201,5,26,11,16,2,2,1.3595201,5,26,12,16,1,1,0.73511201,5,26,13,16,2,2,0.74331201,5,26,14,12,1,1,0.9602201,5,26,15,12,2,2,0.59153201,5,26,16,8,2,2,0.62451201,5,26,17,16,1,1,1.4162201,5,26,18,8,2,2,0.80739201,5,27,1,12,2,2,1.1644201,5,27,2,8,1,1,0.98406201,5,27,3,12,1,1,0.94336201,5,27,4,12,1,1,0.68023201,5,27,5,16,2,2,0.81561201,5,27,6,12,1,1,0.64744201,5,27,7,8,1,1,0.86557201,5,27,8,8,1,1,0.6086201,5,27,9,16,2,2,0.55156201,5,27,10,16,1,1,0.94296201,5,27,11,8,2,2,0.62391201,5,27,12,12,2,2,1.0078201,5,27,13,16,2,2,1.1286201,5,27,14,8,2,2,0.64796201,5,27,15,16,1,1,0.83127201,5,27,16,16,2,2,0.97519201,5,27,17,12,1,1,0.62406201,5,27,18,8,1,1,0.8201,5,28,1,12,2,2,0.58703201,5,28,2,12,2,2,1.0713201,5,28,3,8,2,2,0.57683201,5,28,4,16,1,1,0.73549201,5,28,5,16,1,1,0.66293201,5,28,6,16,1,1,1.008201,5,28,7,8,2,2,0.77538201,5,28,8,16,2,1,1.1683201,5,28,9,16,1,1,1.1276201,5,28,10,8,2,2,0.61604201,5,28,11,12,1,1,0.82445201,5,28,12,12,2,2,0.59219201,5,28,13,8,2,2,0.57636201,5,28,14,8,1,1,0.78477201,5,28,15,12,1,1,0.79998201,5,28,16,12,1,1,0.92797201,5,28,17,16,1,1,1.4075201,5,28,18,8,2,2,0.67235201,5,29,1,8,2,2,0.99567201,5,29,2,12,2,2,0.76058201,5,29,3,8,2,2,0.57648201,5,29,4,16,2,2,1.0871201,5,29,5,12,2,2,1.0965201,5,29,6,16,2,2,0.88762201,5,29,7,16,2,2,0.91139201,5,29,8,8,1,1,0.8084201,5,29,9,12,2,2,0.56795201,5,29,10,16,2,2,1.0719201,5,29,11,12,1,2,1.3837201,5,29,12,8,1,1,1.0166201,5,29,13,12,1,1,0.8635201,5,29,14,16,2,2,1.0558201,5,29,15,12,1,1,0.75934201,5,29,16,16,1,1,0.86423201,5,29,17,8,1,1,0.58339201,5,29,18,8,2,2,0.76038201,5,30,1,16,1,1,0.56273201,5,30,2,16,2,0,0201,5,30,3,12,2,1,1.8238201,5,30,4,8,2,2,0.96752201,5,30,5,12,2,2,0.75293201,5,30,6,12,1,1,0.74395201,5,30,7,8,1,1,0.99922201,5,30,8,16,1,1,0.78404201,5,30,9,8,1,1,0.86393201,5,30,10,16,2,2,0.75209201,5,30,11,16,2,1,1.3034201,5,30,12,12,1,1,1.5039201,5,30,13,12,2,2,0.50391201,5,30,14,16,2,2,0.69566201,5,30,15,12,1,1,1.3287201,5,30,16,8,2,2,0.92756201,5,30,17,8,2,2,0.89591201,5,30,18,8,2,2,0.78424201,5,31,1,16,1,1,1.6588201,5,31,2,8,1,1,0.88033201,5,31,3,8,1,1,0.87949201,5,31,4,8,1,1,0.7602201,5,31,5,12,2,2,1.1517201,5,31,6,16,2,2,1.0076201,5,31,7,12,2,2,0.63159201,5,31,8,8,2,2,0.71242201,5,31,9,16,2,2,0.54351201,5,31,10,12,2,2,0.65582201,5,31,11,16,2,2,0.56743201,5,31,12,12,1,1,0.72805201,5,31,13,12,1,1,1.1924201,5,31,14,8,1,1,0.45568201,5,31,15,12,2,2,0.93638201,5,31,16,8,1,1,1.5113201,5,31,17,16,1,1,0.64025201,5,31,18,16,1,1,0.6712201,5,32,1,8,2,2,0.80367201,5,32,2,12,2,2,0.59987201,5,32,3,8,1,1,0.68838201,5,32,4,12,1,1,0.49557201,5,32,5,8,2,2,0.53695201,5,32,6,16,2,2,0.79978201,5,32,7,12,1,1,1.0959201,5,32,8,12,2,2,0.68803201,5,32,9,8,2,2,0.92075201,5,32,10,12,1,1,0.95982201,5,32,11,8,1,1,0.69519201,5,32,12,16,2,1,1.2633201,5,32,13,16,2,2,0.63105201,5,32,14,16,1,2,1.2641201,5,32,15,8,2,2,0.91981201,5,32,16,16,1,1,1.2636201,5,32,17,16,1,1,0.60715201,5,32,18,12,1,1,0.67259201,6,1,1,12,1,1,0.86729201,6,1,2,12,1,1,0.63389201,6,1,3,16,2,2,1.0876201,6,1,4,8,1,1,0.64817201,6,1,5,8,1,1,0.76889201,6,1,6,16,2,2,0.83935201,6,1,7,8,1,1,0.5848201,6,1,8,12,2,2,0.61587201,6,1,9,8,1,1,0.68935201,6,1,10,12,1,1,1.3204201,6,1,11,16,1,1,0.86345201,6,1,12,8,1,1,1.1758201,6,1,13,12,1,1,0.65601201,6,1,14,16,2,2,0.67295201,6,1,15,16,1,1,0.80824201,6,1,16,16,1,1,0.96708201,6,1,17,8,2,2,0.58397201,6,1,18,12,1,1,0.71327201,6,2,1,8,1,1,1.0003201,6,2,2,12,1,1,0.66307201,6,2,3,12,1,1,0.85641201,6,2,4,8,1,1,0.70395201,6,2,5,12,2,2,0.77714201,6,2,6,16,2,2,0.58338201,6,2,7,16,1,1,0.8961201,6,2,8,12,2,2,0.67214201,6,2,9,12,2,2,0.81511201,6,2,10,16,1,1,0.63232201,6,2,11,12,2,2,0.70441201,6,2,12,8,2,2,0.68113201,6,2,13,8,1,1,0.58463201,6,2,14,16,1,1,1.2164201,6,2,15,16,1,1,0.84755201,6,2,16,16,1,1,0.49489201,6,2,17,8,1,1,0.61542201,6,2,18,8,1,1,1.0101201,6,3,1,8,2,2,0.76471201,6,3,2,8,2,2,0.58377201,6,3,3,16,2,2,0.5434201,6,3,4,8,2,2,0.73736201,6,3,5,16,2,2,0.72657201,6,3,6,12,1,1,0.80871201,6,3,7,16,1,1,0.59971201,6,3,8,16,1,1,0.92786201,6,3,9,8,2,1,0.87978201,6,3,10,8,1,1,0.59247201,6,3,11,12,1,1,0.64752201,6,3,12,12,1,1,0.8241201,6,3,13,16,1,1,0.60776201,6,3,14,8,1,1,0.84869201,6,3,15,16,1,1,0.91119201,6,3,16,12,1,1,0.70423201,6,3,17,12,2,2,0.58328201,6,3,18,12,1,1,0.90394201,6,4,1,12,1,1,0.77982201,6,4,2,8,2,2,0.53592201,6,4,3,16,2,2,0.62319201,6,4,4,16,2,2,0.81664201,6,4,5,16,2,2,0.62348201,6,4,6,12,2,2,0.7762201,6,4,7,8,2,2,0.59221201,6,4,8,16,2,2,0.82662201,6,4,9,8,2,2,0.68096201,6,4,10,12,2,2,0.71182201,6,4,11,12,1,1,0.88161201,6,4,12,12,1,1,0.60724201,6,4,13,8,2,2,0.54449201,6,4,14,16,1,1,0.77602201,6,4,15,12,2,2,0.75894201,6,4,16,16,2,2,0.54413201,6,4,17,8,2,2,0.74486201,6,4,18,8,1,1,0.58377201,6,5,1,12,1,1,0.83514201,6,5,2,8,2,2,0.49592201,6,5,3,12,2,2,0.52022201,6,5,4,16,2,2,1.1199201,6,5,5,8,1,1,0.74471201,6,5,6,16,2,2,0.58366201,6,5,7,16,1,1,0.76781201,6,5,8,12,2,2,0.8234201,6,5,9,12,2,2,1.0396201,6,5,10,16,2,2,0.4961201,6,5,11,8,2,2,0.79237201,6,5,12,12,2,2,0.68014201,6,5,13,16,2,2,1.1127201,6,5,14,12,2,2,0.48757201,6,5,15,16,1,1,1.3837201,6,5,16,8,2,2,0.60829201,6,5,17,8,2,2,0.68808201,6,5,18,8,1,1,0.79241201,6,6,1,12,1,1,0.50781201,6,6,2,8,2,2,0.45582201,6,6,3,16,2,2,1.2559201,6,6,4,8,1,1,0.72039201,6,6,5,8,2,2,0.5441201,6,6,6,12,1,2,0.56854201,6,6,7,8,2,2,0.83253201,6,6,8,12,1,1,0.7354201,6,6,9,16,2,2,1.0322201,6,6,10,8,1,1,0.67937201,6,6,11,16,1,1,0.84755201,6,6,12,12,2,2,0.91198201,6,6,13,16,2,2,0.85522201,6,6,14,16,1,1,0.75172201,6,6,15,8,2,2,0.88742201,6,6,16,16,2,2,1.4877201,6,6,17,12,1,1,1.2001201,6,6,18,12,2,2,0.75937201,6,7,1,8,2,2,0.96358201,6,7,2,12,2,2,0.59194201,6,7,3,16,1,1,0.60755201,6,7,4,16,2,2,0.91076201,6,7,5,8,1,1,1.0242201,6,7,6,16,1,1,0.66349201,6,7,7,16,2,2,1.0556201,6,7,8,12,1,1,0.8864201,6,7,9,12,2,2,1.048201,6,7,10,16,1,1,1.7596201,6,7,11,12,2,2,0.91172201,6,7,12,8,2,1,0.79967201,6,7,13,12,1,1,0.76008201,6,7,14,8,1,1,0.68793201,6,7,15,8,2,2,0.56083201,6,7,16,8,1,1,0.76823201,6,7,17,12,2,2,0.91061201,6,7,18,16,1,1,1.1516201,6,8,1,12,1,1,0.94705201,6,8,2,8,2,2,0.56808201,6,8,3,12,1,1,0.54473201,6,8,4,12,1,1,0.6883201,6,8,5,8,2,2,0.69666201,6,8,6,12,1,1,0.89561201,6,8,7,8,2,2,0.84768201,6,8,8,16,1,1,1.0231201,6,8,9,16,2,2,0.57562201,6,8,10,16,1,1,0.56775201,6,8,11,12,2,2,0.63207201,6,8,12,8,1,1,1.1768201,6,8,13,16,2,2,0.71835201,6,8,14,16,2,1,0.68901201,6,8,15,8,1,1,0.94342201,6,8,16,12,2,2,1.0321201,6,8,17,16,1,1,1.487201,6,8,18,8,2,2,0.56861201,6,9,1,8,2,2,0.70749201,6,9,2,16,1,1,0.50387201,6,9,3,12,1,1,0.62329201,6,9,4,12,2,2,0.75202201,6,9,5,8,1,1,0.67195201,6,9,6,12,2,2,0.55306201,6,9,7,16,2,2,0.51987201,6,9,8,8,2,2,0.78436201,6,9,9,12,1,1,0.64787201,6,9,10,16,2,2,0.64048201,6,9,11,8,1,1,0.68045201,6,9,12,8,1,1,0.64019201,6,9,13,12,2,2,0.77383201,6,9,14,16,2,1,0.71444201,6,9,15,12,2,2,0.79895201,6,9,16,8,1,1,0.93702201,6,9,17,16,1,1,0.74382201,6,9,18,16,2,2,0.51584201,6,10,1,8,2,2,0.95537201,6,10,2,12,1,1,0.73616201,6,10,3,12,2,2,0.95594201,6,10,4,16,1,1,0.84113201,6,10,5,12,1,1,0.57389201,6,10,6,8,2,2,0.55244201,6,10,7,8,1,1,0.57739201,6,10,8,8,2,2,0.7474201,6,10,9,8,2,2,0.89172201,6,10,10,16,2,2,0.51854201,6,10,11,12,2,2,0.76505201,6,10,12,16,1,1,0.77845201,6,10,13,16,2,2,1.3145201,6,10,14,12,1,1,1.0677201,6,10,15,16,1,1,0.54134201,6,10,16,12,2,2,0.96587201,6,10,17,8,2,2,0.70611201,6,10,18,16,2,2,0.52376201,6,11,1,8,1,1,0.79651201,6,11,2,12,2,2,0.73505201,6,11,3,16,1,1,0.61592201,6,11,4,16,1,1,0.64013201,6,11,5,16,2,2,0.55867201,6,11,6,16,2,2,0.91174201,6,11,7,12,1,1,0.66396201,6,11,8,12,1,1,0.65677201,6,11,9,16,1,1,0.68045201,6,11,10,16,2,2,1.0481201,6,11,11,8,2,2,0.70324201,6,11,12,8,2,2,0.66585201,6,11,13,12,1,1,0.68784201,6,11,14,8,1,1,0.76889201,6,11,15,12,1,1,0.92792201,6,11,16,8,1,1,0.73621201,6,11,17,8,2,2,0.67304201,6,11,18,12,1,1,0.64876201,6,12,1,16,2,2,1.0909201,6,12,2,8,2,2,0.56864201,6,12,3,12,1,1,0.84804201,6,12,4,16,1,1,0.68004201,6,12,5,12,2,2,0.48019201,6,12,6,8,1,2,0.48005201,6,12,7,16,2,2,1.0329201,6,12,8,8,1,1,0.76011201,6,12,9,8,1,1,0.52073201,6,12,10,12,1,1,0.87189201,6,12,11,12,1,1,1.5519201,6,12,12,12,1,1,0.7988201,6,12,13,8,1,1,0.62439201,6,12,14,16,2,2,1.0236201,6,12,15,8,2,2,0.66441201,6,12,16,16,1,1,0.68014201,6,12,17,16,2,2,0.68888201,6,12,18,12,2,2,1.0483201,6,13,1,16,1,1,0.58734201,6,13,2,12,1,1,0.6084201,6,13,3,8,2,2,0.67977201,6,13,4,8,2,2,0.59966201,6,13,5,16,1,1,0.52141201,6,13,6,12,2,2,0.68808201,6,13,7,8,1,1,0.80849201,6,13,8,12,1,1,1.1119201,6,13,9,8,2,2,0.7365201,6,13,10,12,2,2,0.86417201,6,13,11,12,2,2,0.58397201,6,13,12,16,1,2,1.2001201,6,13,13,8,2,2,0.62443201,6,13,14,12,2,2,0.51964201,6,13,15,8,1,1,0.92063201,6,13,16,16,1,1,0.81503201,6,13,17,16,1,1,0.63919201,6,13,18,16,2,2,0.82409201,6,14,1,12,1,1,1.0198201,6,14,2,12,2,2,0.80756201,6,14,3,8,2,2,0.75217201,6,14,4,8,1,1,0.5921201,6,14,5,16,1,1,0.94362201,6,14,6,12,2,2,0.61573201,6,14,7,8,2,2,0.52853201,6,14,8,8,1,1,0.74485201,6,14,9,8,2,1,0.5759201,6,14,10,16,1,1,0.63217201,6,14,11,12,1,1,0.63992201,6,14,12,16,2,2,0.74391201,6,14,13,12,1,1,0.9677201,6,14,14,8,2,2,0.50437201,6,14,15,16,1,1,1.3362201,6,14,16,16,1,1,1.1513201,6,14,17,12,1,1,0.56786201,6,14,18,16,1,1,0.65418201,6,15,1,12,2,2,1.1792201,6,15,2,16,1,2,1.5596201,6,15,3,12,1,1,0.68867201,6,15,4,8,1,1,0.47948201,6,15,5,8,2,2,0.72093201,6,15,6,16,2,2,0.51825201,6,15,7,12,2,2,0.60047201,6,15,8,16,1,1,0.87933201,6,15,9,8,2,2,0.84059201,6,15,10,12,2,2,0.88741201,6,15,11,12,2,2,0.55215201,6,15,12,8,1,1,0.79284201,6,15,13,12,2,2,1.6557201,6,15,14,16,2,2,0.9669201,6,15,15,16,2,2,0.95134201,6,15,16,16,1,1,0.66382201,6,15,17,8,1,1,0.8478201,6,15,18,8,2,2,0.72843201,6,16,1,16,2,2,1.0281201,6,16,2,12,1,1,0.93592201,6,16,3,12,1,1,0.76033201,6,16,4,12,2,2,0.66361201,6,16,5,12,2,2,1.1442201,6,16,6,12,1,1,0.71189201,6,16,7,8,2,2,0.70509201,6,16,8,16,1,1,0.83905201,6,16,9,12,2,2,0.77624201,6,16,10,16,2,1,0.73645201,6,16,11,8,2,2,0.92872201,6,16,12,8,2,2,0.96673201,6,16,13,8,1,1,0.54522201,6,16,14,16,2,2,0.91366201,6,16,15,8,1,1,1.0907201,6,16,16,16,2,2,0.59402201,6,16,17,16,2,2,0.63259201,6,16,18,8,1,1,0.62399201,6,17,1,8,2,2,0.77097201,6,17,2,8,2,2,0.64802201,6,17,3,8,2,2,0.58423201,6,17,4,12,1,1,0.74526201,6,17,5,16,1,1,0.64781201,6,17,6,16,2,1,0.47943201,6,17,7,12,1,1,0.82445201,6,17,8,12,1,1,0.65549201,6,17,9,12,2,2,0.79191201,6,17,10,16,2,2,0.63149201,6,17,11,16,2,1,0.76035201,6,17,12,8,1,1,0.67951201,6,17,13,8,2,2,0.63322201,6,17,14,12,2,2,0.51166201,6,17,15,8,2,2,0.66442201,6,17,16,16,2,2,1.064201,6,17,17,12,1,1,0.51171201,6,17,18,16,2,2,1.0799201,6,18,1,8,1,1,0.74753201,6,18,2,8,1,1,1.1211201,6,18,3,12,2,2,0.75928201,6,18,4,16,2,2,0.62366201,6,18,5,16,1,1,0.71153201,6,18,6,12,2,1,0.73541201,6,18,7,12,1,2,0.85673201,6,18,8,16,1,1,1.0947201,6,18,9,8,2,2,0.83239201,6,18,10,12,1,1,0.72675201,6,18,11,16,2,2,0.78513201,6,18,12,16,1,1,0.86413201,6,18,13,8,1,1,0.90349201,6,18,14,12,1,1,0.87192201,6,18,15,12,1,1,0.6712201,6,18,16,8,2,1,1.0647201,6,18,17,8,2,2,0.88783201,6,18,18,16,1,1,1.0393201,6,19,1,16,2,2,1.0043201,6,19,2,12,2,2,0.60717201,6,19,3,12,2,2,0.52845201,6,19,4,12,2,2,0.48853201,6,19,5,12,2,2,0.62151201,6,19,6,16,2,2,1.0323201,6,19,7,8,1,1,0.80852201,6,19,8,16,2,2,0.82293201,6,19,9,12,1,1,0.79213201,6,19,10,16,2,2,0.60648201,6,19,11,8,2,2,0.60104201,6,19,12,16,2,2,0.45609201,6,19,13,8,1,1,0.69929201,6,19,14,8,1,1,0.543201,6,19,15,8,1,1,1.0903201,6,19,16,12,1,1,0.49817201,6,19,17,16,1,1,0.72357201,6,19,18,8,1,1,1.1055201,6,20,1,16,1,1,1.0916201,6,20,2,16,1,1,0.89453201,6,20,3,8,1,1,0.7841201,6,20,4,16,2,2,0.67078201,6,20,5,8,2,2,0.91158201,6,20,6,12,2,2,0.86375201,6,20,7,12,1,1,0.68745201,6,20,8,16,2,2,1.7114201,6,20,9,8,2,2,0.66409201,6,20,10,8,1,1,1.1359201,6,20,11,12,1,1,1.0314201,6,20,12,12,1,1,0.56794201,6,20,13,12,1,1,0.60751201,6,20,14,8,2,2,0.53555201,6,20,15,16,1,1,1.032201,6,20,16,8,1,1,0.55974201,6,20,17,12,1,1,0.63153201,6,20,18,16,1,1,0.58296201,6,21,1,8,1,1,0.59561201,6,21,2,8,2,2,0.58468201,6,21,3,16,2,2,0.7437201,6,21,4,8,1,1,0.71163201,6,21,5,12,1,1,0.68112201,6,21,6,12,2,2,0.51101201,6,21,7,12,1,1,0.96148201,6,21,8,8,2,2,0.70375201,6,21,9,16,1,2,0.681201,6,21,10,8,1,1,0.68805201,6,21,11,8,1,1,0.50474201,6,21,12,16,1,1,0.80028201,6,21,13,16,1,1,0.8313201,6,21,14,16,1,1,0.51932201,6,21,15,12,1,1,0.72104201,6,21,16,12,1,1,0.68763201,6,21,17,16,2,2,0.53746201,6,21,18,12,2,2,0.98401201,6,22,1,12,2,2,0.60345201,6,22,2,8,1,1,0.93645201,6,22,3,12,1,1,0.52814201,6,22,4,16,1,1,0.80856201,6,22,5,16,2,2,1.3747201,6,22,6,16,2,2,1.6635201,6,22,7,8,1,1,0.77575201,6,22,8,8,1,1,0.56819201,6,22,9,16,1,1,0.69658201,6,22,10,16,2,2,0.70286201,6,22,11,12,2,2,0.55281201,6,22,12,12,1,1,0.84888201,6,22,13,8,2,2,0.81614201,6,22,14,8,2,2,0.45628201,6,22,15,16,2,2,0.64698201,6,22,16,12,1,1,0.62489201,6,22,17,8,2,2,0.52809201,6,22,18,12,1,1,1.224201,6,23,1,8,2,2,0.49228201,6,23,2,8,2,2,0.5277201,6,23,3,16,1,1,0.79174201,6,23,4,16,2,2,1.2392201,6,23,5,8,2,2,0.64072201,6,23,6,8,2,2,0.64817201,6,23,7,8,1,1,0.91326201,6,23,8,16,1,1,1.3032201,6,23,9,16,1,1,1.2154201,6,23,10,12,1,1,0.44798201,6,23,11,12,1,1,0.64858201,6,23,12,8,2,2,0.77618201,6,23,13,12,1,1,0.77564201,6,23,14,12,2,2,0.5681201,6,23,15,12,1,1,0.59171201,6,23,16,16,1,1,0.8238201,6,23,17,12,2,2,0.65668201,6,23,18,16,2,2,0.64847201,6,24,1,16,2,2,0.99528201,6,24,2,16,1,1,0.62319201,6,24,3,16,1,1,1.2151201,6,24,4,12,1,1,1.1919201,6,24,5,8,2,2,0.57593201,6,24,6,12,1,1,0.74105201,6,24,7,8,2,2,1.0325201,6,24,8,12,1,1,1.128201,6,24,9,8,1,1,0.64802201,6,24,10,16,1,1,0.57533201,6,24,11,12,1,1,0.82156201,6,24,12,8,1,1,0.7201,6,24,13,12,2,2,0.68096201,6,24,14,12,1,1,0.61294201,6,24,15,8,2,2,0.61788201,6,24,16,16,2,1,1.1007201,6,24,17,8,1,1,1.0553201,6,24,18,16,1,1,0.78965202,1,1,1,12,1,0,0202,1,1,2,8,2,2,1.2595202,1,1,3,16,1,1,1.447202,1,1,4,16,2,0,0202,1,1,5,8,1,1,1.2079202,1,1,6,12,1,1,1.1679202,1,1,7,8,2,2,0.97606202,1,1,8,12,2,2,1.4082202,1,1,9,16,1,0,0202,1,1,10,16,2,0,0202,1,1,11,12,1,0,0202,1,1,12,12,1,1,1.0044202,1,1,13,12,2,2,0.67948202,1,1,14,8,2,2,1.3361202,1,1,15,16,1,1,1.8876202,1,1,16,8,1,1,0.9442202,1,1,17,16,2,2,1.1438202,1,1,18,8,2,2,0.98332202,1,2,1,8,2,2,1.0313202,1,2,2,12,1,0,0202,1,2,3,8,1,1,1.111202,1,2,4,8,1,1,0.86442202,1,2,5,16,2,2,1.0474202,1,2,6,12,2,2,1.4795202,1,2,7,16,2,2,1.7361202,1,2,8,8,1,1,1.4801202,1,2,9,12,1,1,1.9196202,1,2,10,12,1,1,1.8802202,1,2,11,8,1,1,1.5119202,1,2,12,16,1,1,0.69553202,1,2,13,8,1,1,0.8883202,1,2,14,12,1,1,1.3354202,1,2,15,12,1,1,0.75974202,1,2,16,16,1,1,1.8962202,1,2,17,16,2,2,1.7516202,1,2,18,16,2,2,1.2149202,1,3,1,16,2,2,1.0347202,1,3,2,16,2,2,0.72028202,1,3,3,16,2,2,0.97541202,1,3,4,12,1,1,1.2078202,1,3,5,12,1,1,1.4476202,1,3,6,12,2,0,0202,1,3,7,16,1,1,1.5827202,1,3,8,8,2,2,0.65634202,1,3,9,16,2,2,1.4639202,1,3,10,8,2,2,0.7361202,1,3,11,8,2,1,1.4478202,1,3,12,8,2,2,1.0164202,1,3,13,12,2,2,0.67138202,1,3,14,8,1,1,0.89668202,1,3,15,16,2,2,1.4307202,1,3,16,8,2,2,0.65557202,1,3,17,12,2,2,1.328202,1,3,18,12,2,2,1.8955202,1,4,1,8,2,2,1.1083202,1,4,2,8,1,1,0.82587202,1,4,3,12,1,1,1.3445202,1,4,4,12,2,2,0.79257202,1,4,5,12,2,2,0.99977202,1,4,6,8,2,2,1.0562202,1,4,7,16,2,2,1.576202,1,4,8,16,2,2,0.99927202,1,4,9,16,2,2,0.68771202,1,4,10,16,1,1,1.1119202,1,4,11,12,2,2,0.87156202,1,4,12,16,1,1,1.1992202,1,4,13,12,1,1,1.2564202,1,4,14,16,2,2,0.95181202,1,4,15,8,1,1,0.96878202,1,4,16,12,2,2,1.0391202,1,4,17,8,2,2,1.0811202,1,4,18,8,2,2,0.99942202,1,5,1,16,1,1,0.66757202,1,5,2,12,2,2,1.224202,1,5,3,12,1,1,0.69631202,1,5,4,16,2,2,1.2396202,1,5,5,16,1,1,0.6712202,1,5,6,16,2,2,1.6395202,1,5,7,8,1,1,1.6958202,1,5,8,8,2,2,1.4402202,1,5,9,12,1,1,1.4641202,1,5,10,8,1,1,1.1922202,1,5,11,12,2,2,0.85615202,1,5,12,12,1,1,0.83098202,1,5,13,16,1,1,1.5519202,1,5,14,12,1,1,1.3919202,1,5,15,8,2,2,1.8485202,1,5,16,16,2,2,1.3435202,1,5,17,8,1,1,0.56822202,1,5,18,8,2,2,0.83315202,1,6,1,16,2,2,0.77948202,1,6,2,8,1,1,0.99183202,1,6,3,12,2,2,0.64853202,1,6,4,16,2,1,1.5595202,1,6,5,8,1,1,0.68811202,1,6,6,12,1,1,1.2157202,1,6,7,12,2,2,0.92036202,1,6,8,16,1,1,0.75113202,1,6,9,8,2,2,0.97753202,1,6,10,8,2,2,0.72824202,1,6,11,16,1,1,0.6395202,1,6,12,12,1,1,0.7918202,1,6,13,12,1,2,1.6878202,1,6,14,8,1,1,1.2803202,1,6,15,8,2,2,0.96775202,1,6,16,16,1,1,1.0478202,1,6,17,16,2,2,1.5356202,1,6,18,12,2,2,0.80853202,1,7,1,12,2,2,0.96313202,1,7,2,12,1,1,0.85663202,1,7,3,8,1,1,0.7832202,1,7,4,8,1,1,0.83294202,1,7,5,12,2,2,1.4235202,1,7,6,16,1,2,0.62281202,1,7,7,12,2,2,1.1763202,1,7,8,16,1,1,0.77587202,1,7,9,12,1,2,0.70419202,1,7,10,8,2,2,1.0558202,1,7,11,16,2,2,0.88001202,1,7,12,8,2,2,1.2406202,1,7,13,8,1,1,1.3758202,1,7,14,16,1,0,0202,1,7,15,16,1,1,0.73461202,1,7,16,12,1,1,0.82314202,1,7,17,16,2,2,0.81618202,1,7,18,8,2,2,0.92678202,1,8,1,12,2,2,0.62664202,1,8,2,12,1,1,0.81556202,1,8,3,16,1,1,1.176202,1,8,4,16,2,2,0.75111202,1,8,5,16,1,1,1.0553202,1,8,6,12,1,1,1.5279202,1,8,7,8,2,2,1.3277202,1,8,8,16,2,2,0.98416202,1,8,9,8,2,2,1.112202,1,8,10,8,2,2,1.5037202,1,8,11,8,1,1,1.1196202,1,8,12,12,2,2,1.1599202,1,8,13,12,1,1,1.839202,1,8,14,16,2,2,0.67133202,1,8,15,12,2,2,0.75203202,1,8,16,8,2,2,0.64913202,1,8,17,16,2,2,0.82283202,1,8,18,8,1,1,1.7364202,1,9,1,16,1,1,1.1466202,1,9,2,16,2,2,0.62288202,1,9,3,12,1,1,0.66443202,1,9,4,12,1,1,0.79951202,1,9,5,16,1,1,1.1833202,1,9,6,8,1,1,1.3437202,1,9,7,12,1,1,0.81579202,1,9,8,12,1,1,0.59993202,1,9,9,8,2,2,0.83991202,1,9,10,16,1,1,1.3915202,1,9,11,12,2,2,0.6148202,1,9,12,8,1,1,0.71271202,1,9,13,16,2,2,1.1836202,1,9,14,8,2,2,1.3201202,1,9,15,16,1,1,0.87096202,1,9,16,8,2,2,0.72115202,1,9,17,8,2,1,0.80803202,1,9,18,12,2,2,0.95213202,1,10,1,16,2,2,0.89113202,1,10,2,16,2,2,0.93472202,1,10,3,8,2,2,1.0483202,1,10,4,12,1,1,1.2322202,1,10,5,8,2,2,0.60779202,1,10,6,16,1,1,0.60002202,1,10,7,8,2,2,1.3045202,1,10,8,8,2,2,0.8564202,1,10,9,16,2,2,1.0387202,1,10,10,8,2,2,0.7364202,1,10,11,8,1,1,1.1438202,1,10,12,16,1,1,0.82311202,1,10,13,12,1,1,0.79608202,1,10,14,12,2,2,0.83997202,1,10,15,16,1,1,1.2169202,1,10,16,12,2,2,0.7213202,1,10,17,12,1,1,1.1356202,1,10,18,12,1,1,0.87484202,1,11,1,8,1,1,0.73082202,1,11,2,8,2,2,0.72839202,1,11,3,12,1,1,1.0795202,1,11,4,16,1,1,1.207202,1,11,5,16,1,1,0.91158202,1,11,6,8,2,2,0.91961202,1,11,7,12,1,1,0.72763202,1,11,8,8,2,2,1.1211202,1,11,9,16,2,2,0.62342202,1,11,10,16,2,2,1.0151202,1,11,11,12,2,2,0.95929202,1,11,12,12,2,2,0.78375202,1,11,13,12,2,2,0.51955202,1,11,14,12,2,2,0.56744202,1,11,15,8,1,1,0.77557202,1,11,16,16,1,0,0202,1,11,17,8,1,1,1.024202,1,11,18,16,1,1,0.76689202,1,12,1,12,2,2,0.99579202,1,12,2,12,2,2,0.6397202,1,12,3,12,1,1,0.95229202,1,12,4,12,1,1,1.4001202,1,12,5,8,2,2,0.88781202,1,12,6,12,1,1,0.83932202,1,12,7,16,2,2,0.83177202,1,12,8,16,2,2,0.99914202,1,12,9,12,1,1,0.95975202,1,12,10,8,2,2,0.68752202,1,12,11,16,1,1,0.63951202,1,12,12,16,1,1,1.1919202,1,12,13,8,1,2,0.62487202,1,12,14,8,2,2,0.96055202,1,12,15,16,1,1,1.0469202,1,12,16,16,1,1,1.1672202,1,12,17,8,1,1,0.75236202,1,12,18,8,2,2,0.73602202,1,13,1,8,2,2,1.0112202,1,13,2,16,2,2,1.0638202,1,13,3,16,2,2,1.031202,1,13,4,12,1,1,0.72746202,1,13,5,12,2,2,0.74447202,1,13,6,8,2,2,1.048202,1,13,7,16,1,1,1.0638202,1,13,8,8,1,1,0.69537202,1,13,9,12,2,2,0.9843202,1,13,10,16,1,1,1202,1,13,11,12,1,1,1.1431202,1,13,12,16,1,2,1.5035202,1,13,13,12,1,1,0.72779202,1,13,14,8,2,2,0.85684202,1,13,15,8,2,2,0.80807202,1,13,16,16,2,1,1.2556202,1,13,17,12,1,1,0.70379202,1,13,18,8,1,1,1.0084202,1,14,1,12,2,2,0.65182202,1,14,2,12,2,2,0.80768202,1,14,3,16,1,1,0.83851202,1,14,4,8,2,2,0.73577202,1,14,5,12,2,2,0.6719202,1,14,6,8,1,1,0.54435202,1,14,7,12,2,2,0.87136202,1,14,8,16,2,2,1.8311202,1,14,9,16,1,1,0.59126202,1,14,10,16,2,2,1.0556202,1,14,11,16,2,2,1.192202,1,14,12,12,1,1,0.91943202,1,14,13,8,2,2,1.4799202,1,14,14,12,2,2,0.97573202,1,14,15,8,2,2,0.7762202,1,14,16,16,1,1,1.5039202,1,14,17,8,1,1,0.88739202,1,14,18,8,1,1,0.96779202,1,15,1,16,1,2,1.0674202,1,15,2,12,1,1,0.91162202,1,15,3,8,1,1,1.1287202,1,15,4,16,1,1,0.91891202,1,15,5,16,1,2,1.3673202,1,15,6,12,2,2,1.047202,1,15,7,12,1,1,0.66444202,1,15,8,16,2,2,0.89577202,1,15,9,16,1,2,1.511202,1,15,10,16,2,2,1.0879202,1,15,11,8,2,2,1.1679202,1,15,12,8,2,2,1.3361202,1,15,13,12,1,1,0.94305202,1,15,14,8,2,2,0.8879202,1,15,15,12,1,1,0.87296202,1,15,16,8,2,2,1.0238202,1,15,17,8,1,1,1.3608202,1,15,18,12,2,2,1.5112202,1,16,1,16,1,1,0.85102202,1,16,2,16,2,2,1.2636202,1,16,3,12,1,1,0.91935202,1,16,4,8,2,2,0.95988202,1,16,5,12,1,1,0.78375202,1,16,6,8,1,1,0.80056202,1,16,7,12,1,1,1.3032202,1,16,8,16,2,2,0.82415202,1,16,9,8,2,2,0.64841202,1,16,10,12,2,2,0.67135202,1,16,11,8,2,2,0.63261202,1,16,12,16,2,2,0.81498202,1,16,13,12,2,2,1.7599202,1,16,14,8,2,2,0.6087202,1,16,15,16,1,1,0.95938202,1,16,16,16,1,1,1.3667202,1,16,17,12,2,2,1.4233202,1,16,18,8,1,1,0.94466202,1,17,1,12,2,2,0.69876202,1,17,2,12,1,1,0.92047202,1,17,3,16,2,2,0.95116202,1,17,4,16,2,2,1.5362202,1,17,5,12,1,1,0.59091202,1,17,6,16,1,1,1.4878202,1,17,7,8,2,2,0.66404202,1,17,8,16,2,2,1.7592202,1,17,9,12,2,2,0.76028202,1,17,10,8,1,2,0.84827202,1,17,11,16,1,1,1.2954202,1,17,12,8,2,2,0.81629202,1,17,13,12,2,2,1.0948202,1,17,14,8,2,2,1.4324202,1,17,15,16,1,1,1.7747202,1,17,16,12,1,1,0.64007202,1,17,17,8,1,1,0.84019202,1,17,18,8,1,1,0.86433202,1,18,1,8,1,1,1.4597202,1,18,2,8,2,2,0.68035202,1,18,3,16,2,2,0.7035202,1,18,4,16,2,2,0.79944202,1,18,5,16,2,2,0.9036202,1,18,6,12,2,2,0.71162202,1,18,7,12,2,2,1.0805202,1,18,8,8,2,2,0.79166202,1,18,9,12,2,2,0.74404202,1,18,10,8,2,2,0.71932202,1,18,11,8,1,1,0.76083202,1,18,12,16,2,2,0.92721202,1,18,13,12,2,2,0.71224202,1,18,14,12,1,1,0.74356202,1,18,15,8,1,1,0.67155202,1,18,16,12,2,2,0.90418202,1,18,17,16,1,1,0.9835202,1,18,18,16,1,1,1.1359202,1,19,1,16,1,1,1.1714202,1,19,2,16,1,0,0202,1,19,3,16,1,1,1.655202,1,19,4,8,1,1,1.408202,1,19,5,12,1,1,1.04202,1,19,6,16,1,1,0.95937202,1,19,7,8,1,1,1.5517202,1,19,8,12,1,1,0.57131202,1,19,9,16,2,2,0.92832202,1,19,10,8,1,1,1.7274202,1,19,11,8,1,1,0.88875202,1,19,12,8,1,1,0.96008202,1,19,13,8,2,2,0.98336202,1,19,14,12,1,1,0.99252202,1,19,15,12,1,1,1.5348202,1,19,16,16,1,1,1.8632202,1,19,17,12,2,2,1.0483202,1,19,18,12,2,2,0.91945202,1,20,1,12,2,2,0.61201202,1,20,2,16,2,2,1.048202,1,20,3,12,2,2,1.272202,1,20,4,16,1,1,0.67181202,1,20,5,12,2,2,1.6319202,1,20,6,16,2,2,0.75931202,1,20,7,12,2,1,1.68202,1,20,8,12,1,1,0.68715202,1,20,9,12,1,1,0.83232202,1,20,10,8,2,2,0.6245202,1,20,11,16,2,2,0.67909202,1,20,12,8,1,1,0.99301202,1,20,13,16,2,2,0.82296202,1,20,14,16,2,2,0.99183202,1,20,15,8,2,2,0.91168202,1,20,16,8,1,1,0.71136202,1,20,17,8,2,2,0.9291202,1,20,18,8,1,1,0.68002202,1,21,1,16,2,2,1.5557202,1,21,2,8,2,2,0.96041202,1,21,3,12,1,1,0.63936202,1,21,4,16,1,1,0.83981202,1,21,5,8,2,2,0.81568202,1,21,6,12,1,1,0.82318202,1,21,7,8,2,2,0.8086202,1,21,8,16,2,2,0.77511202,1,21,9,8,1,1,0.76832202,1,21,10,12,1,1,0.96701202,1,21,11,12,2,2,0.80894202,1,21,12,12,1,1,1.1199202,1,21,13,16,2,2,1.1748202,1,21,14,16,1,1,1.5597202,1,21,15,8,1,1,0.98405202,1,21,16,12,2,2,1.2875202,1,21,17,8,2,2,1.2247202,1,21,18,16,2,2,0.86351202,1,22,1,16,1,1,0.73195202,1,22,2,12,1,1,1.0075202,1,22,3,16,1,1,1.0237202,1,22,4,16,1,1,1.4076202,1,22,5,12,1,1,0.89518202,1,22,6,8,2,2,0.72755202,1,22,7,8,2,2,0.78479202,1,22,8,12,1,1,0.7197202,1,22,9,12,1,1,0.73639202,1,22,10,12,2,2,0.75952202,1,22,11,8,1,1,0.66338202,1,22,12,8,2,2,1.1526202,1,22,13,16,2,2,0.76711202,1,22,14,8,1,1,0.76024202,1,22,15,16,2,2,1.8398202,1,22,16,12,1,1,1.2794202,1,22,17,8,2,2,1.1039202,1,22,18,16,1,1,1.2792202,1,23,1,16,1,1,0.5874202,1,23,2,16,2,2,0.88808202,1,23,3,16,1,1,1.8226202,1,23,4,12,1,1,1.0793202,1,23,5,8,2,2,0.6636202,1,23,6,16,1,1,0.9356202,1,23,7,8,2,2,0.96787202,1,23,8,16,2,2,1.6319202,1,23,9,12,2,2,0.67214202,1,23,10,12,2,2,1.9441202,1,23,11,12,2,2,0.65497202,1,23,12,12,1,2,1.1119202,1,23,13,8,1,1,0.85641202,1,23,14,8,1,1,0.74398202,1,23,15,12,2,2,0.71199202,1,23,16,16,1,1,1.3038202,1,23,17,8,2,2,0.70335202,1,23,18,8,2,2,0.91243202,1,24,1,16,2,2,1.0996202,1,24,2,12,1,1,0.74315202,1,24,3,12,2,2,0.79245202,1,24,4,16,2,2,1.2878202,1,24,5,12,1,1,0.91093202,1,24,6,8,1,1,0.63321202,1,24,7,16,1,1,1.0387202,1,24,8,8,1,1,1.2089202,1,24,9,16,1,1,0.9833202,1,24,10,8,2,2,1.1597202,1,24,11,8,2,2,1.208202,1,24,12,8,1,1,0.80774202,1,24,13,16,1,1,0.79945202,1,24,14,16,2,2,1.5361202,1,24,15,12,1,1,0.61582202,1,24,16,12,1,1,1.6876202,1,24,17,8,1,1,1.1116202,1,24,18,12,2,2,0.77531202,1,25,1,12,1,1,1.4268202,1,25,2,8,2,2,0.68072202,1,25,3,16,1,1,0.98339202,1,25,4,12,1,1,1.3281202,1,25,5,8,1,1,1.0238202,1,25,6,12,1,1,1.2395202,1,25,7,16,2,2,0.95997202,1,25,8,16,1,1,1.447202,1,25,9,8,1,1,0.65639202,1,25,10,8,2,2,0.92781202,1,25,11,16,1,1,1.3041202,1,25,12,12,2,2,1.0393202,1,25,13,16,2,2,1.1429202,1,25,14,12,1,1,0.63199202,1,25,15,8,1,1,0.73631202,1,25,16,16,1,1,1.9591202,1,25,17,8,1,1,0.80845202,1,25,18,12,2,2,0.94304202,1,26,1,16,2,2,0.68324202,1,26,2,12,1,1,0.75071202,1,26,3,16,2,2,0.93585202,1,26,4,8,2,2,0.73576202,1,26,5,16,2,2,0.94329202,1,26,6,8,1,1,0.56053202,1,26,7,12,2,2,1.0247202,1,26,8,12,1,1,1.0477202,1,26,9,8,2,2,0.86448202,1,26,10,8,1,1,0.55951202,1,26,11,16,2,2,1.5516202,1,26,12,8,2,2,0.7525202,1,26,13,16,1,1,1.096202,1,26,14,16,1,1,1.9995202,1,26,15,12,2,2,0.76021202,1,26,16,12,1,2,1.9361202,1,26,17,12,1,1,0.84791202,1,26,18,8,1,1,1.0717202,1,27,1,16,2,2,0.93938202,1,27,2,16,1,1,1.424202,1,27,3,8,1,1,1.2322202,1,27,4,12,1,1,0.90367202,1,27,5,8,2,2,0.87273202,1,27,6,16,1,1,1.0234202,1,27,7,12,2,2,1.1431202,1,27,8,16,2,2,0.86279202,1,27,9,12,1,1,0.70406202,1,27,10,12,2,2,1.4082202,1,27,11,12,2,2,1.0473202,1,27,12,16,2,2,0.95993202,1,27,13,8,2,2,0.77841202,1,27,14,8,2,2,0.70652202,1,27,15,8,1,1,1.1201202,1,27,16,12,2,2,0.87979202,1,27,17,8,2,2,0.78452202,1,27,18,16,2,2,0.73502202,1,28,1,16,1,1,1.4748202,1,28,2,12,2,2,0.62335202,1,28,3,16,2,2,0.75182202,1,28,4,12,2,2,1.6637202,1,28,5,16,2,1,1.5837202,1,28,6,8,2,2,0.59174202,1,28,7,8,1,1,0.92062202,1,28,8,12,1,1,1.0561202,1,28,9,8,1,1,0.8237202,1,28,10,16,1,1,1.0156202,1,28,11,12,2,2,0.9917202,1,28,12,16,1,1,1.5439202,1,28,13,8,1,1,0.91146202,1,28,14,12,1,1,0.8238202,1,28,15,8,1,1,1.1207202,1,28,16,8,1,1,1.1114202,1,28,17,12,2,2,1.1194202,1,28,18,16,2,2,1.1516202,1,29,1,8,1,1,1.1304202,1,29,2,12,2,2,1.4829202,1,29,3,12,1,1,1.6831202,1,29,4,12,1,1,0.79866202,1,29,5,12,1,1,1.7195202,1,29,6,8,1,1,0.63122202,1,29,7,8,1,1,0.58707202,1,29,8,12,1,1,1.1387202,1,29,9,16,2,2,1.6969202,1,29,10,16,1,1,1.7997202,1,29,11,16,2,2,0.73992202,1,29,12,12,1,1,1.0712202,1,29,13,16,2,2,0.84802202,1,29,14,8,2,2,0.67242202,1,29,15,16,2,2,0.87117202,1,29,16,8,1,1,0.59162202,1,29,17,8,1,1,0.87181202,1,29,18,16,2,2,0.8316202,1,30,1,12,1,1,0.76322202,1,30,2,12,1,1,1.0156202,1,30,3,16,2,2,0.88701202,1,30,4,8,2,2,0.81578202,1,30,5,16,2,2,1.0232202,1,30,6,16,1,1,0.77618202,1,30,7,8,2,2,0.73585202,1,30,8,12,1,1,0.75905202,1,30,9,8,1,1,0.62391202,1,30,10,16,2,2,1.0079202,1,30,11,8,1,1,0.79221202,1,30,12,8,1,1,0.59988202,1,30,13,8,1,1,0.87973202,1,30,14,12,1,1,0.59139202,1,30,15,16,2,2,0.80015202,1,30,16,12,2,2,0.65534202,1,30,17,12,1,1,0.7913202,1,30,18,16,2,2,0.6398202,1,31,1,12,2,2,1.1072202,1,31,2,16,2,2,0.76818202,1,31,3,8,2,2,0.62393202,1,31,4,12,1,1,0.66377202,1,31,5,12,1,1,1.0723202,1,31,6,16,1,1,0.80708202,1,31,7,16,1,1,0.99119202,1,31,8,8,1,1,0.8403202,1,31,9,8,1,1,1.0484202,1,31,10,8,2,2,0.96852202,1,31,11,8,1,1,0.70401202,1,31,12,16,2,2,1.6961202,1,31,13,8,2,2,1.2067202,1,31,14,12,2,2,0.67915202,1,31,15,16,1,1,0.81656202,1,31,16,16,1,1,1.0148202,1,31,17,12,2,2,1.0485202,1,31,18,12,1,0,0202,1,32,1,16,1,1,1.4273202,1,32,2,8,2,2,0.87209202,1,32,3,8,2,2,1.0797202,1,32,4,16,1,1,0.7992202,1,32,5,8,1,1,0.71245202,1,32,6,12,2,2,0.68856202,1,32,7,16,1,2,1.749202,1,32,8,12,1,1,0.61571202,1,32,9,8,1,1,1.0644202,1,32,10,12,1,1,0.87181202,1,32,11,16,1,1,1.0949202,1,32,12,12,2,2,1.3042202,1,32,13,12,2,2,1.4162202,1,32,14,8,2,2,0.62406202,1,32,15,8,2,2,0.68066202,1,32,16,12,1,1,0.65641202,1,32,17,16,2,2,1.1581202,1,32,18,16,2,0,0202,2,1,1,12,1,1,1.5621202,2,1,2,8,2,2,0.80947202,2,1,3,16,1,1,0.92711202,2,1,4,16,2,2,0.91998202,2,1,5,8,1,1,0.51506202,2,1,6,12,1,1,0.66494202,2,1,7,8,2,2,0.54676202,2,1,8,12,2,2,0.89488202,2,1,9,16,1,1,0.73467202,2,1,10,16,2,2,0.59835202,2,1,11,12,1,1,0.89157202,2,1,12,12,1,1,0.70854202,2,1,13,12,2,2,1.034202,2,1,14,8,2,2,0.73343202,2,1,15,16,1,1,0.89243202,2,1,16,8,1,1,1.0556202,2,1,17,16,2,1,1.3213202,2,1,18,8,2,2,0.88422202,2,2,1,8,2,2,0.55215202,2,2,2,12,1,1,0.56552202,2,2,3,8,1,1,0.61601202,2,2,4,8,1,1,0.63689202,2,2,5,16,2,2,0.6873202,2,2,6,12,2,2,0.93375202,2,2,7,16,2,2,0.59295202,2,2,8,8,1,1,0.64148202,2,2,9,12,1,1,0.90372202,2,2,10,12,1,2,0.56546202,2,2,11,8,1,1,0.66875202,2,2,12,16,1,0,0202,2,2,13,8,1,1,1.0133202,2,2,14,12,1,1,1.0084202,2,2,15,12,1,1,0.59997202,2,2,16,16,1,1,0.87151202,2,2,17,16,2,2,0.81559202,2,2,18,16,2,2,1.3519202,2,3,1,16,2,2,1.2272202,2,3,2,16,2,2,0.6632202,2,3,3,16,2,2,1.2881202,2,3,4,12,1,1,0.97623202,2,3,5,12,1,1,0.96795202,2,3,6,12,2,2,0.97616202,2,3,7,16,1,1,1.2636202,2,3,8,8,2,2,1.1913202,2,3,9,16,2,2,0.75183202,2,3,10,8,2,2,0.75295202,2,3,11,8,2,2,0.84059202,2,3,12,8,2,2,1.2317202,2,3,13,12,2,2,0.64006202,2,3,14,8,1,1,0.67955202,2,3,15,16,2,2,1.5273202,2,3,16,8,2,2,0.57616202,2,3,17,12,2,2,1.2639202,2,3,18,12,2,2,0.90405202,2,4,1,8,2,2,1.2116202,2,4,2,8,1,1,0.88866202,2,4,3,12,1,1,1.111202,2,4,4,12,2,2,0.7121202,2,4,5,12,2,2,1.2559202,2,4,6,8,2,2,1.2235202,2,4,7,16,2,2,0.60783202,2,4,8,16,2,1,1.8633202,2,4,9,16,2,2,0.90278202,2,4,10,16,1,1,0.77501202,2,4,11,12,2,2,1.0645202,2,4,12,16,1,1,0.99819202,2,4,13,12,1,1,0.85593202,2,4,14,16,2,2,0.5911202,2,4,15,8,1,1,0.70531202,2,4,16,12,2,2,1.4309202,2,4,17,8,2,2,0.64851202,2,4,18,8,2,2,0.87208202,2,5,1,16,1,1,1.0751202,2,5,2,12,2,2,0.87939202,2,5,3,12,1,1,0.72046202,2,5,4,16,2,2,1.0392202,2,5,5,16,1,1,0.71155202,2,5,6,16,2,2,0.95888202,2,5,7,8,1,1,0.81638202,2,5,8,8,2,2,1.1914202,2,5,9,12,1,1,0.71152202,2,5,10,8,1,1,0.99227202,2,5,11,12,2,2,0.87965202,2,5,12,12,1,1,1.3751202,2,5,13,16,1,1,0.94098202,2,5,14,12,1,1,0.6852202,2,5,15,8,2,2,0.653202,2,5,16,16,2,2,1.1111202,2,5,17,8,1,1,0.59735202,2,5,18,8,2,2,0.71402202,2,6,1,16,2,2,0.66024202,2,6,2,8,1,1,0.45253202,2,6,3,12,2,2,0.93705202,2,6,4,16,2,2,0.65709202,2,6,5,8,1,1,0.56949202,2,6,6,12,1,1,0.62365202,2,6,7,12,2,2,0.80122202,2,6,8,16,1,1,1.2946202,2,6,9,8,2,1,0.68006202,2,6,10,8,2,2,0.70374202,2,6,11,16,1,1,0.9033202,2,6,12,12,1,1,0.64807202,2,6,13,12,1,1,0.76764202,2,6,14,8,1,1,0.74575202,2,6,15,8,2,2,0.96025202,2,6,16,16,1,1,1.6624202,2,6,17,16,2,2,1.4153202,2,6,18,12,2,2,0.64717202,2,7,1,12,2,2,0.65994202,2,7,2,12,1,1,0.695202,2,7,3,8,1,1,1.0246202,2,7,4,8,1,1,0.60006202,2,7,5,12,2,2,1.6479202,2,7,6,16,1,1,0.63206202,2,7,7,12,2,2,0.83217202,2,7,8,16,1,1,0.96785202,2,7,9,12,1,1,1.1035202,2,7,10,8,2,2,0.95292202,2,7,11,16,2,2,1.5187202,2,7,12,8,2,2,0.71983202,2,7,13,8,1,1,0.78455202,2,7,14,16,1,1,0.76694202,2,7,15,16,1,1,0.53675202,2,7,16,12,1,1,0.9032202,2,7,17,16,2,2,0.87192202,2,7,18,8,2,1,1.12202,2,8,1,12,2,2,0.57158202,2,8,2,12,1,1,0.65657202,2,8,3,16,1,1,0.63085202,2,8,4,16,2,2,1.5441202,2,8,5,16,1,1,0.83057202,2,8,6,12,1,1,0.69576202,2,8,7,8,2,2,0.55344202,2,8,8,16,2,2,0.70341202,2,8,9,8,2,2,0.76787202,2,8,10,8,2,2,0.5607202,2,8,11,8,1,1,0.58469202,2,8,12,12,2,2,0.8241202,2,8,13,12,1,1,0.74429202,2,8,14,16,2,2,0.98295202,2,8,15,12,2,2,0.95927202,2,8,16,8,2,2,0.68061202,2,8,17,16,2,2,0.696202,2,8,18,8,1,1,0.84844202,2,9,1,16,1,1,0.97049202,2,9,2,16,2,2,0.85458202,2,9,3,12,1,1,0.71206202,2,9,4,12,1,1,1.0242202,2,9,5,16,1,1,0.63023202,2,9,6,8,1,1,1.9284202,2,9,7,12,1,1,1.0956202,2,9,8,12,1,1,0.78381202,2,9,9,8,2,2,1.04202,2,9,10,16,1,1,0.67931202,2,9,11,12,2,2,0.92856202,2,9,12,8,1,1,0.67994202,2,9,13,16,2,2,1.9114202,2,9,14,8,2,2,0.76876202,2,9,15,16,1,1,0.82277202,2,9,16,8,2,2,0.736202,2,9,17,8,2,2,0.69556202,2,9,18,12,2,1,1.8493202,2,10,1,16,2,2,1.0983202,2,10,2,16,2,2,1.7753202,2,10,3,8,2,2,0.69625202,2,10,4,12,1,1,0.74395202,2,10,5,8,2,2,0.77585202,2,10,6,16,1,1,0.86358202,2,10,7,8,2,2,0.75243202,2,10,8,8,2,2,0.64814202,2,10,9,16,2,2,1.2967202,2,10,10,8,2,2,0.72812202,2,10,11,8,1,1,0.88039202,2,10,12,16,1,0,0202,2,10,13,12,1,1,1.3801202,2,10,14,12,2,2,0.97602202,2,10,15,16,1,1,1.6786202,2,10,16,12,2,2,0.72775202,2,10,17,12,1,1,0.91988202,2,10,18,12,1,1,0.75155202,2,11,1,8,1,1,0.88407202,2,11,2,8,2,2,0.82467202,2,11,3,12,1,1,1.2229202,2,11,4,16,1,1,0.64057202,2,11,5,16,1,1,0.71201202,2,11,6,8,2,2,0.62486202,2,11,7,12,1,1,1.2327202,2,11,8,8,2,2,0.76801202,2,11,9,16,2,2,0.70349202,2,11,10,16,2,2,0.70996202,2,11,11,12,2,2,0.6161202,2,11,12,12,2,2,1.064202,2,11,13,12,2,2,1.0817202,2,11,14,12,2,2,0.85515202,2,11,15,8,1,1,0.71995202,2,11,16,16,1,1,1.3433202,2,11,17,8,1,1,0.56817202,2,11,18,16,1,1,1.5356202,2,12,1,12,2,0,0202,2,12,2,12,2,2,0.61771202,2,12,3,12,1,1,0.84817202,2,12,4,12,1,1,0.64758202,2,12,5,8,2,2,1.2967202,2,12,6,12,1,1,0.85563202,2,12,7,16,2,2,1.3275202,2,12,8,16,2,2,0.79247202,2,12,9,12,1,1,1.0554202,2,12,10,8,2,2,0.95935202,2,12,11,16,1,1,0.74371202,2,12,12,16,1,1,1.072202,2,12,13,8,1,1,1.2715202,2,12,14,8,2,2,0.80053202,2,12,15,16,1,1,0.96699202,2,12,16,16,1,1,0.74309202,2,12,17,8,1,1,0.66441202,2,12,18,8,2,2,0.58435202,2,13,1,8,2,2,0.59656202,2,13,2,16,2,2,0.72802202,2,13,3,16,2,2,0.68049202,2,13,4,12,1,1,0.65589202,2,13,5,12,2,2,0.65585202,2,13,6,8,2,2,1.8408202,2,13,7,16,1,1,1.0638202,2,13,8,8,1,1,1.2955202,2,13,9,12,2,2,0.7509202,2,13,10,16,1,1,0.75211202,2,13,11,12,1,1,0.78297202,2,13,12,16,1,1,0.84784202,2,13,13,12,1,1,0.64721202,2,13,14,8,2,2,0.66498202,2,13,15,8,2,2,0.70404202,2,13,16,16,2,2,0.77501202,2,13,17,12,1,1,0.84838202,2,13,18,8,1,1,0.72693202,2,14,1,12,2,2,0.69901202,2,14,2,12,2,2,1.5847202,2,14,3,16,1,1,1.0303202,2,14,4,8,2,2,0.68046202,2,14,5,12,2,2,0.71159202,2,14,6,8,1,1,0.60007202,2,14,7,12,2,2,1.0089202,2,14,8,16,2,2,0.68722202,2,14,9,16,1,1,0.64721202,2,14,10,16,2,2,0.63956202,2,14,11,16,2,2,1.0236202,2,14,12,12,1,1,0.59947202,2,14,13,8,2,2,0.80057202,2,14,14,12,2,2,0.62368202,2,14,15,8,2,2,0.69691202,2,14,16,16,1,1,1.1359202,2,14,17,8,1,1,0.74469202,2,14,18,8,1,1,0.81419202,2,15,1,16,1,1,1.0272202,2,15,2,12,1,1,0.62366202,2,15,3,8,1,1,0.9203202,2,15,4,16,1,1,0.68724202,2,15,5,16,1,1,0.60732202,2,15,6,12,2,2,0.88813202,2,15,7,12,1,1,0.56767202,2,15,8,16,2,2,1.3204202,2,15,9,16,1,1,1.3271202,2,15,10,16,2,2,0.71125202,2,15,11,8,2,2,0.67271202,2,15,12,8,2,1,0.8322202,2,15,13,12,1,1,0.73537202,2,15,14,8,2,2,0.67294202,2,15,15,12,1,1,0.89557202,2,15,16,8,2,2,0.73677202,2,15,17,8,1,1,0.87947202,2,15,18,12,2,2,1.6322202,2,16,1,16,1,1,0.8835202,2,16,2,16,2,2,1.0148202,2,16,3,12,1,1,0.78404202,2,16,4,8,2,2,0.79246202,2,16,5,12,1,1,0.59899202,2,16,6,8,1,1,0.94457202,2,16,7,12,1,1,0.84788202,2,16,8,16,2,2,0.87178202,2,16,9,8,2,2,0.83925202,2,16,10,12,2,2,0.91977202,2,16,11,8,2,2,0.80776202,2,16,12,16,2,2,0.62327202,2,16,13,12,2,1,1.7041202,2,16,14,8,2,2,0.70419202,2,16,15,16,1,1,0.67947202,2,16,16,16,1,1,1.1426202,2,16,17,12,2,2,0.93587202,2,16,18,8,1,1,0.65564202,2,17,1,12,2,2,0.73023202,2,17,2,12,1,1,0.71157202,2,17,3,16,2,2,0.67903202,2,17,4,16,2,2,0.95229202,2,17,5,12,1,1,0.51961202,2,17,6,16,1,1,1.2953202,2,17,7,8,2,2,1.0393202,2,17,8,16,2,2,0.55995202,2,17,9,12,2,2,0.59136202,2,17,10,8,1,1,0.53633202,2,17,11,16,1,1,0.54301202,2,17,12,8,2,2,0.9276202,2,17,13,12,2,2,0.49647202,2,17,14,8,2,2,0.56745202,2,17,15,16,1,1,0.68748202,2,17,16,12,1,1,0.79978202,2,17,17,8,1,1,0.88728202,2,17,18,8,1,1,0.44846202,2,18,1,8,1,1,0.58741202,2,18,2,8,2,2,0.74328202,2,18,3,16,2,2,0.93635202,2,18,4,16,2,2,0.68641202,2,18,5,16,2,2,0.53582202,2,18,6,12,2,2,0.90318202,2,18,7,12,2,2,0.48775202,2,18,8,8,2,2,0.48772202,2,18,9,12,2,2,1.0801202,2,18,10,8,2,2,0.5438202,2,18,11,8,1,1,0.75145202,2,18,12,16,2,2,1.8316202,2,18,13,12,2,2,0.60704202,2,18,14,12,1,1,0.83213202,2,18,15,8,1,1,0.78466202,2,18,16,12,2,2,1.1512202,2,18,17,16,1,1,0.85555202,2,18,18,16,1,1,0.68752202,2,19,1,16,1,1,0.81974202,2,19,2,16,1,1,0.63975202,2,19,3,16,1,1,0.63099202,2,19,4,8,1,1,0.91242202,2,19,5,12,1,1,0.85555202,2,19,6,16,1,1,0.7032202,2,19,7,8,1,1,0.53556202,2,19,8,12,1,1,0.82339202,2,19,9,16,2,2,1.135202,2,19,10,8,1,1,0.81687202,2,19,11,8,1,1,0.76745202,2,19,12,8,1,1,0.5679202,2,19,13,8,2,2,1.5848202,2,19,14,12,1,1,0.64688202,2,19,15,12,1,1,0.77627202,2,19,16,16,1,1,0.58353202,2,19,17,12,2,2,1.5277202,2,19,18,12,2,2,0.56082202,2,20,1,12,2,2,0.57121202,2,20,2,16,2,2,0.767202,2,20,3,12,2,2,0.68778202,2,20,4,16,1,1,1.089202,2,20,5,12,2,2,0.84684